%time,field.header.seq,field.header.stamp,field.header.frame_id,field.orientation.x,field.orientation.y,field.orientation.z,field.orientation.w,field.orientation_covariance0,field.orientation_covariance1,field.orientation_covariance2,field.orientation_covariance3,field.orientation_covariance4,field.orientation_covariance5,field.orientation_covariance6,field.orientation_covariance7,field.orientation_covariance8,field.angular_velocity.x,field.angular_velocity.y,field.angular_velocity.z,field.angular_velocity_covariance0,field.angular_velocity_covariance1,field.angular_velocity_covariance2,field.angular_velocity_covariance3,field.angular_velocity_covariance4,field.angular_velocity_covariance5,field.angular_velocity_covariance6,field.angular_velocity_covariance7,field.angular_velocity_covariance8,field.linear_acceleration.x,field.linear_acceleration.y,field.linear_acceleration.z,field.linear_acceleration_covariance0,field.linear_acceleration_covariance1,field.linear_acceleration_covariance2,field.linear_acceleration_covariance3,field.linear_acceleration_covariance4,field.linear_acceleration_covariance5,field.linear_acceleration_covariance6,field.linear_acceleration_covariance7,field.linear_acceleration_covariance8
1581113386793504345,1,1581113386793351888,,0.864185731139,-0.00300960625532,-0.499313023705,0.866408502707,0.0,0.0,0.0,0.0,0.0,0.0,0.0,0.0,0.0,-0.001486,0.001656,0.000791,0.0,0.0,0.0,0.0,0.0,0.0,0.0,0.0,0.0,-0.074,0.039,-9.601,0.0,0.0,0.0,0.0,0.0,0.0,0.0,0.0,0.0
1581113386818175690,2,1581113386818063020,,0.864185718207,-0.00299765562897,-0.499320617184,0.866404154124,0.0,0.0,0.0,0.0,0.0,0.0,0.0,0.0,0.0,-0.001176,0.001783,-0.000399,0.0,0.0,0.0,0.0,0.0,0.0,0.0,0.0,0.0,-0.101,0.019,-9.594,0.0,0.0,0.0,0.0,0.0,0.0,0.0,0.0,0.0
1581113386843491723,3,1581113386843374013,,0.864168166664,-0.00300188372109,-0.499350833913,0.866386756378,0.0,0.0,0.0,0.0,0.0,0.0,0.0,0.0,0.0,0.000327,0.000987,0.00088,0.0,0.0,0.0,0.0,0.0,0.0,0.0,0.0,0.0,-0.079,0.023,-9.589,0.0,0.0,0.0,0.0,0.0,0.0,0.0,0.0,0.0
1581113386868173643,4,1581113386868058919,,0.864172570748,-0.00300627363897,-0.499343247028,0.866391146295,0.0,0.0,0.0,0.0,0.0,0.0,0.0,0.0,0.0,-6e-06,-2.8e-05,0.000326,0.0,0.0,0.0,0.0,0.0,0.0,0.0,0.0,0.0,-0.075,0.04,-9.58,0.0,0.0,0.0,0.0,0.0,0.0,0.0,0.0,0.0
1581113386893073626,5,1581113386892929077,,0.864159396898,-0.00301376979782,-0.499358361782,0.866382389882,0.0,0.0,0.0,0.0,0.0,0.0,0.0,0.0,0.0,-0.001737,-0.000704,-0.000528,0.0,0.0,0.0,0.0,0.0,0.0,0.0,0.0,0.0,-0.102,0.028,-9.589,0.0,0.0,0.0,0.0,0.0,0.0,0.0,0.0,0.0
1581113386918285115,6,1581113386918149948,,0.864159396898,-0.00302136281267,-0.499350794566,0.866386706408,0.0,0.0,0.0,0.0,0.0,0.0,0.0,0.0,0.0,-2.6e-05,-0.001198,2.2e-05,0.0,0.0,0.0,0.0,0.0,0.0,0.0,0.0,0.0,-0.096,0.038,-9.599,0.0,0.0,0.0,0.0,0.0,0.0,0.0,0.0,0.0
1581113386943493174,7,1581113386943377971,,0.86414620959,-0.00301690794763,-0.499373502692,0.866373600769,0.0,0.0,0.0,0.0,0.0,0.0,0.0,0.0,0.0,-0.001317,0.001201,0.000436,0.0,0.0,0.0,0.0,0.0,0.0,0.0,0.0,0.0,-0.079,0.044,-9.588,0.0,0.0,0.0,0.0,0.0,0.0,0.0,0.0,0.0
1581113386968403993,8,1581113386968262910,,0.864154992617,-0.00300937970956,-0.499365948657,0.866377999793,0.0,0.0,0.0,0.0,0.0,0.0,0.0,0.0,0.0,8e-06,-0.000381,0.00036,0.0,0.0,0.0,0.0,0.0,0.0,0.0,0.0,0.0,-0.073,0.025,-9.621,0.0,0.0,0.0,0.0,0.0,0.0,0.0,0.0,0.0
1581113386993550926,9,1581113386993423938,,0.864154992617,-0.00301697275265,-0.499358381544,0.866382316348,0.0,0.0,0.0,0.0,0.0,0.0,0.0,0.0,0.0,0.000439,0.000187,0.000759,0.0,0.0,0.0,0.0,0.0,0.0,0.0,0.0,0.0,-0.097,0.004,-9.604,0.0,0.0,0.0,0.0,0.0,0.0,0.0,0.0,0.0
1581113387018045633,10,1581113387017891883,,0.86414620959,-0.00300931498014,-0.499381069729,0.866369284082,0.0,0.0,0.0,0.0,0.0,0.0,0.0,0.0,0.0,9.3e-05,9.7e-05,-0.000603,0.0,0.0,0.0,0.0,0.0,0.0,0.0,0.0,0.0,-0.073,0.035,-9.613,0.0,0.0,0.0,0.0,0.0,0.0,0.0,0.0,0.0
1581113387043105527,11,1581113387042985916,,0.864133034556,-0.0030016251058,-0.499411317902,0.866351893002,0.0,0.0,0.0,0.0,0.0,0.0,0.0,0.0,0.0,0.001133,0.000533,-0.000167,0.0,0.0,0.0,0.0,0.0,0.0,0.0,0.0,0.0,-0.094,0.03,-9.62,0.0,0.0,0.0,0.0,0.0,0.0,0.0,0.0,0.0
1581113387068332734,12,1581113387068169116,,0.864128642747,-0.00300918551854,-0.499411311418,0.866351851866,0.0,0.0,0.0,0.0,0.0,0.0,0.0,0.0,0.0,5.3e-05,-0.000937,-0.000436,0.0,0.0,0.0,0.0,0.0,0.0,0.0,0.0,0.0,-0.077,0.024,-9.591,0.0,0.0,0.0,0.0,0.0,0.0,0.0,0.0,0.0
1581113387093707150,13,1581113387093597888,,0.864137439166,-0.00299842287867,-0.499411298201,0.866351966328,0.0,0.0,0.0,0.0,0.0,0.0,0.0,0.0,0.0,0.000558,0.000243,-0.000363,0.0,0.0,0.0,0.0,0.0,0.0,0.0,0.0,0.0,-0.083,0.04,-9.562,0.0,0.0,0.0,0.0,0.0,0.0,0.0,0.0,0.0
1581113387118149729,14,1581113387118043899,,0.8641374263,-0.00300165743351,-0.499403757537,0.866356251154,0.0,0.0,0.0,0.0,0.0,0.0,0.0,0.0,0.0,0.000657,-0.001229,-0.000227,0.0,0.0,0.0,0.0,0.0,0.0,0.0,0.0,0.0,-0.083,0.011,-9.554,0.0,0.0,0.0,0.0,0.0,0.0,0.0,0.0,0.0
1581113387143211562,15,1581113387143047094,,0.864128642747,-0.00300918551854,-0.499411311418,0.866351851866,0.0,0.0,0.0,0.0,0.0,0.0,0.0,0.0,0.0,6.2e-05,-0.000771,-0.001398,0.0,0.0,0.0,0.0,0.0,0.0,0.0,0.0,0.0,-0.095,0.014,-9.584,0.0,0.0,0.0,0.0,0.0,0.0,0.0,0.0,0.0
1581113387168036877,16,1581113387167929887,,0.864106695576,-0.003013382202,-0.499449086396,0.866330092446,0.0,0.0,0.0,0.0,0.0,0.0,0.0,0.0,0.0,-0.000632,-0.000566,-0.000884,0.0,0.0,0.0,0.0,0.0,0.0,0.0,0.0,0.0,-0.084,0.032,-9.58,0.0,0.0,0.0,0.0,0.0,0.0,0.0,0.0,0.0
1581113387193499412,17,1581113387193391084,,0.864102290507,-0.00300899131927,-0.499456672811,0.866325701563,0.0,0.0,0.0,0.0,0.0,0.0,0.0,0.0,0.0,0.000201,-0.000668,0.000219,0.0,0.0,0.0,0.0,0.0,0.0,0.0,0.0,0.0,-0.093,0.048,-9.611,0.0,0.0,0.0,0.0,0.0,0.0,0.0,0.0,0.0
1581113387218281608,18,1581113387218131065,,0.864080328498,-0.00301642188068,-0.499486906452,0.866308225508,0.0,0.0,0.0,0.0,0.0,0.0,0.0,0.0,0.0,0.000491,-0.001535,-0.001215,0.0,0.0,0.0,0.0,0.0,0.0,0.0,0.0,0.0,-0.092,0.041,-9.577,0.0,0.0,0.0,0.0,0.0,0.0,0.0,0.0,0.0
1581113387243594092,19,1581113387243459939,,0.864062757706,-0.0030087000049,-0.499524712332,0.866286471656,0.0,0.0,0.0,0.0,0.0,0.0,0.0,0.0,0.0,0.000455,-0.000278,-0.000345,0.0,0.0,0.0,0.0,0.0,0.0,0.0,0.0,0.0,-0.081,0.017,-9.603,0.0,0.0,0.0,0.0,0.0,0.0,0.0,0.0,0.0
1581113387268164091,20,1581113387268014907,,0.864053971915,-0.00300863526585,-0.499539831807,0.866277753173,0.0,0.0,0.0,0.0,0.0,0.0,0.0,0.0,0.0,-0.00114,-0.000567,0.000368,0.0,0.0,0.0,0.0,0.0,0.0,0.0,0.0,0.0,-0.084,0.028,-9.619,0.0,0.0,0.0,0.0,0.0,0.0,0.0,0.0,0.0
1581113387293057194,21,1581113387292949914,,0.864053971915,-0.0030010431679,-0.499547397978,0.866273434967,0.0,0.0,0.0,0.0,0.0,0.0,0.0,0.0,0.0,-0.000337,-0.001029,-0.002142,0.0,0.0,0.0,0.0,0.0,0.0,0.0,0.0,0.0,-0.076,0.041,-9.563,0.0,0.0,0.0,0.0,0.0,0.0,0.0,0.0,0.0
1581113387319501778,22,1581113387319379091,,0.864062757706,-0.00300110783132,-0.499532278578,0.866282153582,0.0,0.0,0.0,0.0,0.0,0.0,0.0,0.0,0.0,0.000306,-0.000788,0.000211,0.0,0.0,0.0,0.0,0.0,0.0,0.0,0.0,0.0,-0.089,0.045,-9.607,0.0,0.0,0.0,0.0,0.0,0.0,0.0,0.0,0.0
1581113387343569481,23,1581113387343440055,,0.864062757706,-0.00300110783132,-0.499532278578,0.866282153582,0.0,0.0,0.0,0.0,0.0,0.0,0.0,0.0,0.0,-0.000852,-0.000663,0.000219,0.0,0.0,0.0,0.0,0.0,0.0,0.0,0.0,0.0,-0.084,0.048,-9.614,0.0,0.0,0.0,0.0,0.0,0.0,0.0,0.0,0.0
1581113387369305446,24,1581113387369159936,,0.864058364843,-0.00300107549972,-0.499539838297,0.866277794308,0.0,0.0,0.0,0.0,0.0,0.0,0.0,0.0,0.0,5.8e-05,0.000406,-0.000352,0.0,0.0,0.0,0.0,0.0,0.0,0.0,0.0,0.0,-0.083,0.029,-9.594,0.0,0.0,0.0,0.0,0.0,0.0,0.0,0.0,0.0
1581113387393216452,25,1581113387393107891,,0.864071556098,-0.00300553160326,-0.499517132817,0.866290904231,0.0,0.0,0.0,0.0,0.0,0.0,0.0,0.0,0.0,8.5e-05,0.000149,0.000621,0.0,0.0,0.0,0.0,0.0,0.0,0.0,0.0,0.0,-0.091,0.043,-9.578,0.0,0.0,0.0,0.0,0.0,0.0,0.0,0.0,0.0
1581113387418935275,26,1581113387418828964,,0.864071556098,-0.00301312378643,-0.499509566429,0.866295222211,0.0,0.0,0.0,0.0,0.0,0.0,0.0,0.0,0.0,0.000936,-0.001157,0.000637,0.0,0.0,0.0,0.0,0.0,0.0,0.0,0.0,0.0,-0.1,0.013,-9.625,0.0,0.0,0.0,0.0,0.0,0.0,0.0,0.0,0.0
1581113387443524224,27,1581113387443406105,,0.864058390506,-0.00300979411419,-0.499539785842,0.866277858839,0.0,0.0,0.0,0.0,0.0,0.0,0.0,0.0,0.0,0.000112,0.001478,-0.001018,0.0,0.0,0.0,0.0,0.0,0.0,0.0,0.0,0.0,-0.087,0.043,-9.605,0.0,0.0,0.0,0.0,0.0,0.0,0.0,0.0,0.0
1581113387469518481,28,1581113387469393014,,0.864062783368,-0.00300982631384,-0.499532226122,0.866282218113,0.0,0.0,0.0,0.0,0.0,0.0,0.0,0.0,0.0,0.000341,1.4e-05,0.000257,0.0,0.0,0.0,0.0,0.0,0.0,0.0,0.0,0.0,-0.075,0.046,-9.594,0.0,0.0,0.0,0.0,0.0,0.0,0.0,0.0,0.0
1581113387493733548,29,1581113387493580102,,0.864040805599,-0.00300530574227,-0.499570050585,0.86626038885,0.0,0.0,0.0,0.0,0.0,0.0,0.0,0.0,0.0,0.000153,3.9e-05,0.000244,0.0,0.0,0.0,0.0,0.0,0.0,0.0,0.0,0.0,-0.09,0.028,-9.618,0.0,0.0,0.0,0.0,0.0,0.0,0.0,0.0,0.0
1581113387519076470,30,1581113387518925905,,0.86406277057,-0.00299028308447,-0.499547384768,0.866273549261,0.0,0.0,0.0,0.0,0.0,0.0,0.0,0.0,0.0,-0.000672,0.000856,0.000605,0.0,0.0,0.0,0.0,0.0,0.0,0.0,0.0,0.0,-0.084,0.027,-9.63,0.0,0.0,0.0,0.0,0.0,0.0,0.0,0.0,0.0
1581113387543092114,31,1581113387542938947,,0.864062757706,-0.00298592371104,-0.499547410844,0.866273517039,0.0,0.0,0.0,0.0,0.0,0.0,0.0,0.0,0.0,-0.000736,-0.000837,-6.3e-05,0.0,0.0,0.0,0.0,0.0,0.0,0.0,0.0,0.0,-0.078,0.037,-9.592,0.0,0.0,0.0,0.0,0.0,0.0,0.0,0.0,0.0
1581113387576124923,32,1581113387573151111,,0.864075935898,-0.00298602047758,-0.499524731685,0.866286594862,0.0,0.0,0.0,0.0,0.0,0.0,0.0,0.0,0.0,3.8e-05,0.000599,0.00052,0.0,0.0,0.0,0.0,0.0,0.0,0.0,0.0,0.0,-0.067,0.021,-9.573,0.0,0.0,0.0,0.0,0.0,0.0,0.0,0.0,0.0
1581113387593401815,33,1581113387593297958,,0.864080341362,-0.00298281981026,-0.49952471205,0.866286667983,0.0,0.0,0.0,0.0,0.0,0.0,0.0,0.0,0.0,4.2e-05,0.000453,-0.001235,0.0,0.0,0.0,0.0,0.0,0.0,0.0,0.0,0.0,-0.077,0.023,-9.618,0.0,0.0,0.0,0.0,0.0,0.0,0.0,0.0,0.0
1581113387619273343,34,1581113387619118928,,0.864075948763,-0.0029903796531,-0.499524705608,0.866286627084,0.0,0.0,0.0,0.0,0.0,0.0,0.0,0.0,0.0,-0.000405,-0.000646,0.002489,0.0,0.0,0.0,0.0,0.0,0.0,0.0,0.0,0.0,-0.066,0.038,-9.597,0.0,0.0,0.0,0.0,0.0,0.0,0.0,0.0,0.0
1581113387644123940,35,1581113387644004106,,0.864075935898,-0.00299361261335,-0.499517165477,0.866290913002,0.0,0.0,0.0,0.0,0.0,0.0,0.0,0.0,0.0,-0.00065,-0.001145,-0.000143,0.0,0.0,0.0,0.0,0.0,0.0,0.0,0.0,0.0,-0.082,0.032,-9.621,0.0,0.0,0.0,0.0,0.0,0.0,0.0,0.0,0.0
1581113387668984207,36,1581113387668879985,,0.864067150502,-0.00300114016269,-0.499524718821,0.866286512791,0.0,0.0,0.0,0.0,0.0,0.0,0.0,0.0,0.0,0.001071,-0.000233,-0.000121,0.0,0.0,0.0,0.0,0.0,0.0,0.0,0.0,0.0,-0.103,0.01,-9.579,0.0,0.0,0.0,0.0,0.0,0.0,0.0,0.0,0.0
1581113387693753045,37,1581113387693589925,,0.864049578921,-0.00300101083584,-0.49955495762,0.866269075561,0.0,0.0,0.0,0.0,0.0,0.0,0.0,0.0,0.0,0.001088,0.000314,0.000271,0.0,0.0,0.0,0.0,0.0,0.0,0.0,0.0,0.0,-0.06,0.022,-9.59,0.0,0.0,0.0,0.0,0.0,0.0,0.0,0.0,0.0
1581113387719766579,38,1581113387719660043,,0.864053971915,-0.0030010431679,-0.499547397978,0.866273434967,0.0,0.0,0.0,0.0,0.0,0.0,0.0,0.0,0.0,0.001312,-0.000517,0.00097,0.0,0.0,0.0,0.0,0.0,0.0,0.0,0.0,0.0,-0.084,0.02,-9.615,0.0,0.0,0.0,0.0,0.0,0.0,0.0,0.0,0.0
1581113387743815290,39,1581113387743706941,,0.864045211523,-0.0030021056992,-0.499570030925,0.866260462076,0.0,0.0,0.0,0.0,0.0,0.0,0.0,0.0,0.0,0.000523,0.00025,0.00038,0.0,0.0,0.0,0.0,0.0,0.0,0.0,0.0,0.0,-0.101,0.026,-9.571,0.0,0.0,0.0,0.0,0.0,0.0,0.0,0.0,0.0
1581113387769379074,40,1581113387769215106,,0.864045211523,-0.0030021056992,-0.499570030925,0.866260462076,0.0,0.0,0.0,0.0,0.0,0.0,0.0,0.0,0.0,-0.000127,-0.000134,-9e-05,0.0,0.0,0.0,0.0,0.0,0.0,0.0,0.0,0.0,-0.075,0.025,-9.603,0.0,0.0,0.0,0.0,0.0,0.0,0.0,0.0,0.0
1581113387793220835,41,1581113387793071031,,0.86403201915,-0.00299764944128,-0.499592735578,0.86624735087,0.0,0.0,0.0,0.0,0.0,0.0,0.0,0.0,0.0,0.000222,-0.000139,0.001406,0.0,0.0,0.0,0.0,0.0,0.0,0.0,0.0,0.0,-0.089,0.041,-9.604,0.0,0.0,0.0,0.0,0.0,0.0,0.0,0.0,0.0
1581113387820028790,42,1581113387819890975,,0.864023245236,-0.00300953650869,-0.499600262228,0.866242982272,0.0,0.0,0.0,0.0,0.0,0.0,0.0,0.0,0.0,-0.000851,-0.000365,0.000481,0.0,0.0,0.0,0.0,0.0,0.0,0.0,0.0,0.0,-0.063,0.025,-9.596,0.0,0.0,0.0,0.0,0.0,0.0,0.0,0.0,0.0
1581113387845025203,43,1581113387844896078,,0.864014470992,-0.00301383207161,-0.499615354662,0.86623429464,0.0,0.0,0.0,0.0,0.0,0.0,0.0,0.0,0.0,0.000965,-0.000273,-0.000912,0.0,0.0,0.0,0.0,0.0,0.0,0.0,0.0,0.0,-0.081,0.037,-9.594,0.0,0.0,0.0,0.0,0.0,0.0,0.0,0.0,0.0
1581113387877543641,44,1581113387876904010,,0.864036412407,-0.00299768167046,-0.499585176125,0.866251710606,0.0,0.0,0.0,0.0,0.0,0.0,0.0,0.0,0.0,-0.00082,-0.000398,-0.000498,0.0,0.0,0.0,0.0,0.0,0.0,0.0,0.0,0.0,-0.093,0.043,-9.613,0.0,0.0,0.0,0.0,0.0,0.0,0.0,0.0,0.0
1581113387895682931,45,1581113387895519971,,0.864036412407,-0.0030052734755,-0.499577610114,0.866256029246,0.0,0.0,0.0,0.0,0.0,0.0,0.0,0.0,0.0,-0.000683,0.0007,-0.00184,0.0,0.0,0.0,0.0,0.0,0.0,0.0,0.0,0.0,-0.094,0.03,-9.624,0.0,0.0,0.0,0.0,0.0,0.0,0.0,0.0,0.0
1581113387919163276,46,1581113387918997049,,0.86403201915,-0.00299764944128,-0.499592735578,0.86624735087,0.0,0.0,0.0,0.0,0.0,0.0,0.0,0.0,0.0,-0.001398,0.000379,-0.002268,0.0,0.0,0.0,0.0,0.0,0.0,0.0,0.0,0.0,-0.081,0.032,-9.632,0.0,0.0,0.0,0.0,0.0,0.0,0.0,0.0,0.0
1581113387944757677,47,1581113387944638013,,0.864027625827,-0.00299761721186,-0.499600294993,0.866242991068,0.0,0.0,0.0,0.0,0.0,0.0,0.0,0.0,0.0,-0.000384,0.000387,0.000503,0.0,0.0,0.0,0.0,0.0,0.0,0.0,0.0,0.0,-0.099,0.054,-9.608,0.0,0.0,0.0,0.0,0.0,0.0,0.0,0.0,0.0
1581113387969726898,48,1581113387969619989,,0.864014445463,-0.00299752052226,-0.49962297301,0.866229911266,0.0,0.0,0.0,0.0,0.0,0.0,0.0,0.0,0.0,0.000375,0.000721,-0.000676,0.0,0.0,0.0,0.0,0.0,0.0,0.0,0.0,0.0,-0.065,0.027,-9.593,0.0,0.0,0.0,0.0,0.0,0.0,0.0,0.0,0.0
1581113387994484113,49,1581113387994363069,,0.864010039013,-0.00298553662438,-0.499638124055,0.866221199806,0.0,0.0,0.0,0.0,0.0,0.0,0.0,0.0,0.0,-0.000195,-0.000591,-0.000471,0.0,0.0,0.0,0.0,0.0,0.0,0.0,0.0,0.0,-0.095,0.033,-9.609,0.0,0.0,0.0,0.0,0.0,0.0,0.0,0.0,0.0
1581113388019100966,50,1581113388018990039,,0.863988070094,-0.00299296670802,-0.499668354155,0.866203717616,0.0,0.0,0.0,0.0,0.0,0.0,0.0,0.0,0.0,0.001176,-0.000101,-0.000303,0.0,0.0,0.0,0.0,0.0,0.0,0.0,0.0,0.0,-0.091,0.022,-9.62,0.0,0.0,0.0,0.0,0.0,0.0,0.0,0.0,0.0
1581113388043937857,51,1581113388043834924,,0.863979282066,-0.00299290211248,-0.499683472186,0.866194996626,0.0,0.0,0.0,0.0,0.0,0.0,0.0,0.0,0.0,-0.000713,0.000806,-0.000171,0.0,0.0,0.0,0.0,0.0,0.0,0.0,0.0,0.0,-0.115,0.051,-9.628,0.0,0.0,0.0,0.0,0.0,0.0,0.0,0.0,0.0
1581113388069665427,52,1581113388069555044,,0.863983676113,-0.00299293441036,-0.499675913189,0.866199357154,0.0,0.0,0.0,0.0,0.0,0.0,0.0,0.0,0.0,-0.000177,0.00054,0.000288,0.0,0.0,0.0,0.0,0.0,0.0,0.0,0.0,0.0,-0.067,0.029,-9.589,0.0,0.0,0.0,0.0,0.0,0.0,0.0,0.0,0.0
1581113388094508861,53,1581113388094397068,,0.863966099531,-0.00300039648338,-0.499698583605,0.866186234305,0.0,0.0,0.0,0.0,0.0,0.0,0.0,0.0,0.0,-0.000749,0.000351,-0.001172,0.0,0.0,0.0,0.0,0.0,0.0,0.0,0.0,0.0,-0.091,0.029,-9.572,0.0,0.0,0.0,0.0,0.0,0.0,0.0,0.0,0.0
1581113388119244346,54,1581113388119122982,,0.863957310845,-0.00300033180991,-0.49971370133,0.866177512787,0.0,0.0,0.0,0.0,0.0,0.0,0.0,0.0,0.0,-0.000167,-7.2e-05,-0.000442,0.0,0.0,0.0,0.0,0.0,0.0,0.0,0.0,0.0,-0.079,0.023,-9.567,0.0,0.0,0.0,0.0,0.0,0.0,0.0,0.0,0.0
1581113388144306073,55,1581113388144148111,,0.863966112394,-0.00299716597613,-0.49970612281,0.866181946912,0.0,0.0,0.0,0.0,0.0,0.0,0.0,0.0,0.0,-0.000377,-0.000254,0.000161,0.0,0.0,0.0,0.0,0.0,0.0,0.0,0.0,0.0,-0.1,0.051,-9.557,0.0,0.0,0.0,0.0,0.0,0.0,0.0,0.0,0.0
1581113388169384546,56,1581113388169195890,,0.863948534758,-0.00299703704341,-0.49973635796,0.86616450335,0.0,0.0,0.0,0.0,0.0,0.0,0.0,0.0,0.0,-0.0004,0.000557,-0.000197,0.0,0.0,0.0,0.0,0.0,0.0,0.0,0.0,0.0,-0.1,0.022,-9.602,0.0,0.0,0.0,0.0,0.0,0.0,0.0,0.0,0.0
1581113388194077086,57,1581113388193973064,,0.863917771364,-0.00300440218619,-0.499781703013,0.866138295,0.0,0.0,0.0,0.0,0.0,0.0,0.0,0.0,0.0,-0.001063,0.000249,-0.000734,0.0,0.0,0.0,0.0,0.0,0.0,0.0,0.0,0.0,-0.068,0.034,-9.584,0.0,0.0,0.0,0.0,0.0,0.0,0.0,0.0,0.0
1581113388219517356,58,1581113388219383955,,0.863900190833,-0.0030042730921,-0.499811936638,0.8661208488,0.0,0.0,0.0,0.0,0.0,0.0,0.0,0.0,0.0,-0.000287,-0.000192,-0.000584,0.0,0.0,0.0,0.0,0.0,0.0,0.0,0.0,0.0,-0.074,0.028,-9.583,0.0,0.0,0.0,0.0,0.0,0.0,0.0,0.0,0.0
1581113388244558696,59,1581113388244404077,,0.863913363468,-0.00298482688049,-0.499804417378,0.866125260209,0.0,0.0,0.0,0.0,0.0,0.0,0.0,0.0,0.0,-0.000227,-0.000764,0.000592,0.0,0.0,0.0,0.0,0.0,0.0,0.0,0.0,0.0,-0.083,0.023,-9.595,0.0,0.0,0.0,0.0,0.0,0.0,0.0,0.0,0.0
1581113388269633087,60,1581113388269500017,,0.863930943208,-0.00296977438469,-0.499789313302,0.866134065114,0.0,0.0,0.0,0.0,0.0,0.0,0.0,0.0,0.0,0.000654,-0.000606,0.001042,0.0,0.0,0.0,0.0,0.0,0.0,0.0,0.0,0.0,-0.086,-0.003,-9.583,0.0,0.0,0.0,0.0,0.0,0.0,0.0,0.0,0.0
1581113388294379899,61,1581113388294219970,,0.863935363638,-0.00298612005043,-0.499774137944,0.866142811399,0.0,0.0,0.0,0.0,0.0,0.0,0.0,0.0,0.0,0.000727,5.2e-05,0.000375,0.0,0.0,0.0,0.0,0.0,0.0,0.0,0.0,0.0,-0.066,0.021,-9.61,0.0,0.0,0.0,0.0,0.0,0.0,0.0,0.0,0.0
1581113388319321527,62,1581113388319163084,,0.863948547555,-0.00297862557188,-0.499759027304,0.866151574765,0.0,0.0,0.0,0.0,0.0,0.0,0.0,0.0,0.0,-0.000257,0.001291,-0.001244,0.0,0.0,0.0,0.0,0.0,0.0,0.0,0.0,0.0,-0.076,0.011,-9.595,0.0,0.0,0.0,0.0,0.0,0.0,0.0,0.0,0.0
1581113388344339471,63,1581113388344130992,,0.863957349236,-0.00298305076801,-0.499743884018,0.866160329094,0.0,0.0,0.0,0.0,0.0,0.0,0.0,0.0,0.0,-1.8e-05,0.001113,0.000922,0.0,0.0,0.0,0.0,0.0,0.0,0.0,0.0,0.0,-0.104,0.012,-9.625,0.0,0.0,0.0,0.0,0.0,0.0,0.0,0.0,0.0
1581113388369477803,64,1581113388369359016,,0.863944178378,-0.0029949066753,-0.499758968629,0.866151598024,0.0,0.0,0.0,0.0,0.0,0.0,0.0,0.0,0.0,2e-06,-0.000207,-0.000956,0.0,0.0,0.0,0.0,0.0,0.0,0.0,0.0,0.0,-0.098,0.028,-9.582,0.0,0.0,0.0,0.0,0.0,0.0,0.0,0.0,0.0
1581113388394457540,65,1581113388394320964,,0.863939796338,-0.00299923600044,-0.499766501055,0.866147268699,0.0,0.0,0.0,0.0,0.0,0.0,0.0,0.0,0.0,0.000793,-0.000699,-0.000418,0.0,0.0,0.0,0.0,0.0,0.0,0.0,0.0,0.0,-0.07,0.017,-9.609,0.0,0.0,0.0,0.0,0.0,0.0,0.0,0.0,0.0
1581113388419251188,66,1581113388419080018,,0.863952980059,-0.00299933168318,-0.499743825201,0.866160352259,0.0,0.0,0.0,0.0,0.0,0.0,0.0,0.0,0.0,-4.2e-05,0.000571,0.000162,0.0,0.0,0.0,0.0,0.0,0.0,0.0,0.0,0.0,-0.075,0.018,-9.591,0.0,0.0,0.0,0.0,0.0,0.0,0.0,0.0,0.0
1581113388444334163,67,1581113388444171905,,0.863966150588,-0.00299506647405,-0.499721175161,0.866173403298,0.0,0.0,0.0,0.0,0.0,0.0,0.0,0.0,0.0,-0.001764,0.000406,-0.000161,0.0,0.0,0.0,0.0,0.0,0.0,0.0,0.0,0.0,-0.09,0.029,-9.602,0.0,0.0,0.0,0.0,0.0,0.0,0.0,0.0,0.0
1581113388477684261,68,1581113388477193117,,0.863974939011,-0.00299513039195,-0.499706057507,0.866182124946,0.0,0.0,0.0,0.0,0.0,0.0,0.0,0.0,0.0,-0.000253,0.000188,0.000364,0.0,0.0,0.0,0.0,0.0,0.0,0.0,0.0,0.0,-0.088,0.027,-9.596,0.0,0.0,0.0,0.0,0.0,0.0,0.0,0.0,0.0
1581113388495105013,69,1581113388494937896,,0.863988121152,-0.00300281730677,-0.499675815096,0.866199526667,0.0,0.0,0.0,0.0,0.0,0.0,0.0,0.0,0.0,0.000423,-0.001004,0.000411,0.0,0.0,0.0,0.0,0.0,0.0,0.0,0.0,0.0,-0.103,0.038,-9.551,0.0,0.0,0.0,0.0,0.0,0.0,0.0,0.0,0.0
1581113388519240913,70,1581113388519128084,,0.863992527668,-0.00299961871905,-0.499675795585,0.866199599375,0.0,0.0,0.0,0.0,0.0,0.0,0.0,0.0,0.0,0.000945,0.001055,-0.000329,0.0,0.0,0.0,0.0,0.0,0.0,0.0,0.0,0.0,-0.072,0.013,-9.572,0.0,0.0,0.0,0.0,0.0,0.0,0.0,0.0,0.0
1581113388544032996,71,1581113388543925046,,0.863996934052,-0.00299642013098,-0.499675776129,0.866199671876,0.0,0.0,0.0,0.0,0.0,0.0,0.0,0.0,0.0,0.001188,0.000493,0.001375,0.0,0.0,0.0,0.0,0.0,0.0,0.0,0.0,0.0,-0.105,0.045,-9.603,0.0,0.0,0.0,0.0,0.0,0.0,0.0,0.0,0.0
1581113388570380099,72,1581113388570153951,,0.864014521263,-0.00300090751024,-0.499645513583,0.866217145077,0.0,0.0,0.0,0.0,0.0,0.0,0.0,0.0,0.0,-0.000769,-0.000395,0.000165,0.0,0.0,0.0,0.0,0.0,0.0,0.0,0.0,0.0,-0.084,0.02,-9.605,0.0,0.0,0.0,0.0,0.0,0.0,0.0,0.0,0.0
1581113388594713469,73,1581113388594599962,,0.864014508794,-0.00299654728048,-0.499645539752,0.866217113323,0.0,0.0,0.0,0.0,0.0,0.0,0.0,0.0,0.0,-4.5e-05,0.000976,-0.001008,0.0,0.0,0.0,0.0,0.0,0.0,0.0,0.0,0.0,-0.085,0.016,-9.633,0.0,0.0,0.0,0.0,0.0,0.0,0.0,0.0,0.0
1581113388619548922,74,1581113388619417905,,0.864005734023,-0.00300843498513,-0.49965306593,0.866212744211,0.0,0.0,0.0,0.0,0.0,0.0,0.0,0.0,0.0,-0.000777,-0.001107,-0.000846,0.0,0.0,0.0,0.0,0.0,0.0,0.0,0.0,0.0,-0.084,0.02,-9.6,0.0,0.0,0.0,0.0,0.0,0.0,0.0,0.0,0.0
1581113388644565889,75,1581113388644423961,,0.864010127676,-0.00300087578918,-0.499653072735,0.866212784814,0.0,0.0,0.0,0.0,0.0,0.0,0.0,0.0,0.0,0.00027,0.001142,-0.0005,0.0,0.0,0.0,0.0,0.0,0.0,0.0,0.0,0.0,-0.094,0.044,-9.609,0.0,0.0,0.0,0.0,0.0,0.0,0.0,0.0,0.0
1581113388669337957,76,1581113388669177055,,0.864027714031,-0.00301295374403,-0.499615243519,0.866234576589,0.0,0.0,0.0,0.0,0.0,0.0,0.0,0.0,0.0,-8.1e-05,0.000163,0.000408,0.0,0.0,0.0,0.0,0.0,0.0,0.0,0.0,0.0,-0.089,0.009,-9.606,0.0,0.0,0.0,0.0,0.0,0.0,0.0,0.0,0.0
1581113388694326562,77,1581113388694166898,,0.864036488209,-0.00300865729413,-0.499600151072,0.866243264663,0.0,0.0,0.0,0.0,0.0,0.0,0.0,0.0,0.0,-0.00161,0.000233,-0.000157,0.0,0.0,0.0,0.0,0.0,0.0,0.0,0.0,0.0,-0.086,0.017,-9.596,0.0,0.0,0.0,0.0,0.0,0.0,0.0,0.0,0.0
1581113388719637563,78,1581113388719511985,,0.864036488209,-0.00300106611214,-0.499607717255,0.866238945401,0.0,0.0,0.0,0.0,0.0,0.0,0.0,0.0,0.0,-0.000632,0.000351,0.000387,0.0,0.0,0.0,0.0,0.0,0.0,0.0,0.0,0.0,-0.097,0.038,-9.588,0.0,0.0,0.0,0.0,0.0,0.0,0.0,0.0,0.0
1581113388744662416,79,1581113388744545936,,0.864036500613,-0.00300542601184,-0.499607691047,0.866238977087,0.0,0.0,0.0,0.0,0.0,0.0,0.0,0.0,0.0,0.000651,0.000768,-0.000501,0.0,0.0,0.0,0.0,0.0,0.0,0.0,0.0,0.0,-0.069,0.036,-9.6,0.0,0.0,0.0,0.0,0.0,0.0,0.0,0.0,0.0
1581113388769465732,80,1581113388769345045,,0.864027726369,-0.00300972273511,-0.499622783447,0.866230288778,0.0,0.0,0.0,0.0,0.0,0.0,0.0,0.0,0.0,0.002291,-8e-06,-0.000788,0.0,0.0,0.0,0.0,0.0,0.0,0.0,0.0,0.0,-0.11,0.049,-9.586,0.0,0.0,0.0,0.0,0.0,0.0,0.0,0.0,0.0
1581113388794326258,81,1581113388794167041,,0.864032094952,-0.00300103439222,-0.499615276597,0.866234585468,0.0,0.0,0.0,0.0,0.0,0.0,0.0,0.0,0.0,0.000212,-0.000809,0.000299,0.0,0.0,0.0,0.0,0.0,0.0,0.0,0.0,0.0,-0.091,0.04,-9.59,0.0,0.0,0.0,0.0,0.0,0.0,0.0,0.0,0.0
1581113388819257681,82,1581113388819088935,,0.86403647574,-0.00300429746022,-0.499600177309,0.866243232873,0.0,0.0,0.0,0.0,0.0,0.0,0.0,0.0,0.0,-0.000188,-2.8e-05,2.1e-05,0.0,0.0,0.0,0.0,0.0,0.0,0.0,0.0,0.0,-0.114,0.022,-9.587,0.0,0.0,0.0,0.0,0.0,0.0,0.0,0.0,0.0
1581113388845485353,83,1581113388845334053,,0.864040868932,-0.0030043292837,-0.499592617892,0.866247592674,0.0,0.0,0.0,0.0,0.0,0.0,0.0,0.0,0.0,0.000627,-1.5e-05,-0.00025,0.0,0.0,0.0,0.0,0.0,0.0,0.0,0.0,0.0,-0.089,0.036,-9.576,0.0,0.0,0.0,0.0,0.0,0.0,0.0,0.0,0.0
1581113388869706369,84,1581113388869587898,,0.864045262058,-0.00300436110695,-0.499585058436,0.866251952409,0.0,0.0,0.0,0.0,0.0,0.0,0.0,0.0,0.0,-0.000215,0.00109,-0.000583,0.0,0.0,0.0,0.0,0.0,0.0,0.0,0.0,0.0,-0.104,0.016,-9.591,0.0,0.0,0.0,0.0,0.0,0.0,0.0,0.0,0.0
1581113388894726008,85,1581113388894572973,,0.864045262058,-0.00301195250623,-0.499577492169,0.86625627137,0.0,0.0,0.0,0.0,0.0,0.0,0.0,0.0,0.0,0.000308,-0.00058,-0.00067,0.0,0.0,0.0,0.0,0.0,0.0,0.0,0.0,0.0,-0.099,0.021,-9.631,0.0,0.0,0.0,0.0,0.0,0.0,0.0,0.0,0.0
1581113388919335740,86,1581113388919178009,,0.864040881401,-0.00302387171813,-0.499577458989,0.866256262462,0.0,0.0,0.0,0.0,0.0,0.0,0.0,0.0,0.0,-6.9e-05,9.2e-05,0.000116,0.0,0.0,0.0,0.0,0.0,0.0,0.0,0.0,0.0,-0.121,0.016,-9.595,0.0,0.0,0.0,0.0,0.0,0.0,0.0,0.0,0.0
1581113388944316370,87,1581113388944107055,,0.864054060582,-0.00302396721618,-0.499554780281,0.866269341072,0.0,0.0,0.0,0.0,0.0,0.0,0.0,0.0,0.0,-0.000936,-0.000617,0.000587,0.0,0.0,0.0,0.0,0.0,0.0,0.0,0.0,0.0,-0.075,0.026,-9.645,0.0,0.0,0.0,0.0,0.0,0.0,0.0,0.0,0.0
1581113388969630363,88,1581113388969516992,,0.864062846374,-0.00302403088039,-0.499539660953,0.866278059816,0.0,0.0,0.0,0.0,0.0,0.0,0.0,0.0,0.0,-1.7e-05,-0.000256,-0.000368,0.0,0.0,0.0,0.0,0.0,0.0,0.0,0.0,0.0,-0.083,0.047,-9.62,0.0,0.0,0.0,0.0,0.0,0.0,0.0,0.0,0.0
1581113388994944970,89,1581113388994774103,,0.864076012098,-0.00301976726686,-0.499517008047,0.866291105573,0.0,0.0,0.0,0.0,0.0,0.0,0.0,0.0,0.0,-0.000766,0.000217,7.1e-05,0.0,0.0,0.0,0.0,0.0,0.0,0.0,0.0,0.0,-0.08,0.017,-9.619,0.0,0.0,0.0,0.0,0.0,0.0,0.0,0.0,0.0
1581113389019354744,90,1581113389019195079,,0.864084797232,-0.0030122392455,-0.49950945502,0.866295505422,0.0,0.0,0.0,0.0,0.0,0.0,0.0,0.0,0.0,-0.000219,0.000739,0.001063,0.0,0.0,0.0,0.0,0.0,0.0,0.0,0.0,0.0,-0.079,0.029,-9.616,0.0,0.0,0.0,0.0,0.0,0.0,0.0,0.0,0.0
1581113389044539140,91,1581113389044414043,,0.864084809702,-0.00300900661414,-0.499516995387,0.866291218844,0.0,0.0,0.0,0.0,0.0,0.0,0.0,0.0,0.0,-0.000284,0.001855,-0.001078,0.0,0.0,0.0,0.0,0.0,0.0,0.0,0.0,0.0,-0.082,0.02,-9.597,0.0,0.0,0.0,0.0,0.0,0.0,0.0,0.0,0.0
1581113389069252837,92,1581113389069067001,,0.86408920217,-0.00300144673339,-0.499517002185,0.866291259449,0.0,0.0,0.0,0.0,0.0,0.0,0.0,0.0,0.0,-0.000849,-0.000215,-0.000845,0.0,0.0,0.0,0.0,0.0,0.0,0.0,0.0,0.0,-0.092,0.022,-9.601,0.0,0.0,0.0,0.0,0.0,0.0,0.0,0.0,0.0
1581113389094393190,93,1581113389094228029,,0.8640891897,-0.00300467932687,-0.49950946179,0.866295546131,0.0,0.0,0.0,0.0,0.0,0.0,0.0,0.0,0.0,-0.000904,0.000137,0.001947,0.0,0.0,0.0,0.0,0.0,0.0,0.0,0.0,0.0,-0.085,0.039,-9.589,0.0,0.0,0.0,0.0,0.0,0.0,0.0,0.0,0.0
1581113389119599678,94,1581113389119446039,,0.864089214574,-0.00301339741117,-0.499509409273,0.866295609641,0.0,0.0,0.0,0.0,0.0,0.0,0.0,0.0,0.0,-1.5e-05,0.000647,-0.000235,0.0,0.0,0.0,0.0,0.0,0.0,0.0,0.0,0.0,-0.101,0.051,-9.602,0.0,0.0,0.0,0.0,0.0,0.0,0.0,0.0,0.0
1581113389144860652,95,1581113389144742012,,0.864084822106,-0.00301336572215,-0.499516969109,0.866291250566,0.0,0.0,0.0,0.0,0.0,0.0,0.0,0.0,0.0,-0.00034,-0.000713,-0.001181,0.0,0.0,0.0,0.0,0.0,0.0,0.0,0.0,0.0,-0.096,0.023,-9.588,0.0,0.0,0.0,0.0,0.0,0.0,0.0,0.0,0.0
1581113389169490539,96,1581113389169363975,,0.864080429572,-0.00302092560262,-0.499516962207,0.866291209933,0.0,0.0,0.0,0.0,0.0,0.0,0.0,0.0,0.0,-0.0009,-0.001801,-0.000976,0.0,0.0,0.0,0.0,0.0,0.0,0.0,0.0,0.0,-0.06,0.023,-9.577,0.0,0.0,0.0,0.0,0.0,0.0,0.0,0.0,0.0
1581113389194367671,97,1581113389194206953,,0.864106783789,-0.00300593244399,-0.499486736399,0.866308727037,0.0,0.0,0.0,0.0,0.0,0.0,0.0,0.0,0.0,0.000272,-0.000748,3.7e-05,0.0,0.0,0.0,0.0,0.0,0.0,0.0,0.0,0.0,-0.094,0.036,-9.595,0.0,0.0,0.0,0.0,0.0,0.0,0.0,0.0,0.0
1581113389227827069,98,1581113389227475881,,0.864106783789,-0.00301352416495,-0.499479169547,0.866313045281,0.0,0.0,0.0,0.0,0.0,0.0,0.0,0.0,0.0,-0.000532,-0.000186,-0.000634,0.0,0.0,0.0,0.0,0.0,0.0,0.0,0.0,0.0,-0.076,0.03,-9.601,0.0,0.0,0.0,0.0,0.0,0.0,0.0,0.0,0.0
1581113389245114014,99,1581113389244952917,,0.86408920217,-0.00300903836913,-0.499509435551,0.866295577919,0.0,0.0,0.0,0.0,0.0,0.0,0.0,0.0,0.0,-0.001072,0.000893,-0.001607,0.0,0.0,0.0,0.0,0.0,0.0,0.0,0.0,0.0,-0.056,0.041,-9.612,0.0,0.0,0.0,0.0,0.0,0.0,0.0,0.0,0.0
1581113389269329923,100,1581113389269170045,,0.864084797232,-0.00299705584194,-0.499524588157,0.866286868557,0.0,0.0,0.0,0.0,0.0,0.0,0.0,0.0,0.0,-0.000584,-0.000843,0.000204,0.0,0.0,0.0,0.0,0.0,0.0,0.0,0.0,0.0,-0.067,0.047,-9.619,0.0,0.0,0.0,0.0,0.0,0.0,0.0,0.0,0.0
1581113389294242581,101,1581113389294125080,,0.864084809702,-0.00299382349389,-0.499532128505,0.866282581639,0.0,0.0,0.0,0.0,0.0,0.0,0.0,0.0,0.0,0.000883,0.000343,0.000292,0.0,0.0,0.0,0.0,0.0,0.0,0.0,0.0,0.0,-0.082,0.036,-9.585,0.0,0.0,0.0,0.0,0.0,0.0,0.0,0.0,0.0
1581113389320171663,102,1581113389320020914,,0.86408920217,-0.00300144673339,-0.499517002185,0.866291259449,0.0,0.0,0.0,0.0,0.0,0.0,0.0,0.0,0.0,0.000205,-8.3e-05,-0.000404,0.0,0.0,0.0,0.0,0.0,0.0,0.0,0.0,0.0,-0.077,0.008,-9.621,0.0,0.0,0.0,0.0,0.0,0.0,0.0,0.0,0.0
1581113389352131428,103,1581113389351792097,,0.864102391584,-0.00299830918617,-0.499501863088,0.866300049717,0.0,0.0,0.0,0.0,0.0,0.0,0.0,0.0,0.0,0.000335,-0.000827,-0.000235,0.0,0.0,0.0,0.0,0.0,0.0,0.0,0.0,0.0,-0.084,0.021,-9.585,0.0,0.0,0.0,0.0,0.0,0.0,0.0,0.0,0.0
1581113389370304353,104,1581113389370146036,,0.864093594572,-0.0029938868524,-0.499517008946,0.866291299987,0.0,0.0,0.0,0.0,0.0,0.0,0.0,0.0,0.0,-0.000265,0.000203,-0.000885,0.0,0.0,0.0,0.0,0.0,0.0,0.0,0.0,0.0,-0.076,0.035,-9.592,0.0,0.0,0.0,0.0,0.0,0.0,0.0,0.0,0.0
1581113389394720745,105,1581113389394555091,,0.864093594572,-0.0029938868524,-0.499517008946,0.866291299987,0.0,0.0,0.0,0.0,0.0,0.0,0.0,0.0,0.0,-0.000477,-0.001216,0.000702,0.0,0.0,0.0,0.0,0.0,0.0,0.0,0.0,0.0,-0.095,0.012,-9.616,0.0,0.0,0.0,0.0,0.0,0.0,0.0,0.0,0.0
1581113389419151286,106,1581113389419004917,,0.864093606976,-0.00299065450424,-0.499524549388,0.866287012927,0.0,0.0,0.0,0.0,0.0,0.0,0.0,0.0,0.0,0.000819,0.00098,0.000405,0.0,0.0,0.0,0.0,0.0,0.0,0.0,0.0,0.0,-0.089,0.032,-9.595,0.0,0.0,0.0,0.0,0.0,0.0,0.0,0.0,0.0
1581113389444263648,107,1581113389444114923,,0.864084846716,-0.0030069012134,-0.499532049956,0.86628267638,0.0,0.0,0.0,0.0,0.0,0.0,0.0,0.0,0.0,0.001479,0.000401,-0.000843,0.0,0.0,0.0,0.0,0.0,0.0,0.0,0.0,0.0,-0.071,0.03,-9.614,0.0,0.0,0.0,0.0,0.0,0.0,0.0,0.0,0.0
1581113389477246176,108,1581113389476911067,,0.864089239185,-0.00300693269486,-0.499524490194,0.866287035587,0.0,0.0,0.0,0.0,0.0,0.0,0.0,0.0,0.0,0.000346,-8.5e-05,-0.00052,0.0,0.0,0.0,0.0,0.0,0.0,0.0,0.0,0.0,-0.091,0.042,-9.597,0.0,0.0,0.0,0.0,0.0,0.0,0.0,0.0,0.0
1581113389495527064,109,1581113389495223999,,0.864084846716,-0.00301449253763,-0.499524483236,0.866286995162,0.0,0.0,0.0,0.0,0.0,0.0,0.0,0.0,0.0,0.000959,0.000655,-0.000549,0.0,0.0,0.0,0.0,0.0,0.0,0.0,0.0,0.0,-0.073,0.026,-9.595,0.0,0.0,0.0,0.0,0.0,0.0,0.0,0.0,0.0
1581113389520270037,110,1581113389520165920,,0.864067276185,-0.00301436645827,-0.499554722052,0.866269557941,0.0,0.0,0.0,0.0,0.0,0.0,0.0,0.0,0.0,-6.8e-05,0.000937,-0.00062,0.0,0.0,0.0,0.0,0.0,0.0,0.0,0.0,0.0,-0.078,0.012,-9.561,0.0,0.0,0.0,0.0,0.0,0.0,0.0,0.0,0.0
1581113389544270395,111,1581113389544157028,,0.864076061582,-0.00301442949841,-0.49953960272,0.866278276684,0.0,0.0,0.0,0.0,0.0,0.0,0.0,0.0,0.0,-5.7e-05,0.000155,-0.000507,0.0,0.0,0.0,0.0,0.0,0.0,0.0,0.0,0.0,-0.072,0.028,-9.607,0.0,0.0,0.0,0.0,0.0,0.0,0.0,0.0,0.0
1581113389572397507,112,1581113389572220087,,0.864084846716,-0.00301449253763,-0.499524483236,0.866286995162,0.0,0.0,0.0,0.0,0.0,0.0,0.0,0.0,0.0,-0.000655,-2e-06,0.001182,0.0,0.0,0.0,0.0,0.0,0.0,0.0,0.0,0.0,-0.076,0.009,-9.604,0.0,0.0,0.0,0.0,0.0,0.0,0.0,0.0,0.0
1581113389613816920,113,1581113389613162994,,0.864067288392,-0.00302631707807,-0.499547129016,0.86627390838,0.0,0.0,0.0,0.0,0.0,0.0,0.0,0.0,0.0,0.000508,0.000837,-0.001214,0.0,0.0,0.0,0.0,0.0,0.0,0.0,0.0,0.0,-0.099,0.032,-9.576,0.0,0.0,0.0,0.0,0.0,0.0,0.0,0.0,0.0
1581113389624673672,114,1581113389624489068,,0.864058502731,-0.0030338452759,-0.499554681561,0.866269508458,0.0,0.0,0.0,0.0,0.0,0.0,0.0,0.0,0.0,5e-06,-5.1e-05,0.000707,0.0,0.0,0.0,0.0,0.0,0.0,0.0,0.0,0.0,-0.079,0.037,-9.587,0.0,0.0,0.0,0.0,0.0,0.0,0.0,0.0,0.0
1581113389644961060,115,1581113389644813060,,0.864062895594,-0.0030338768062,-0.499547121914,0.866273867862,0.0,0.0,0.0,0.0,0.0,0.0,0.0,0.0,0.0,0.000692,5e-05,-0.00072,0.0,0.0,0.0,0.0,0.0,0.0,0.0,0.0,0.0,-0.107,0.038,-9.591,0.0,0.0,0.0,0.0,0.0,0.0,0.0,0.0,0.0
1581113389670202122,116,1581113389670051097,,0.864062883388,-0.00303710879709,-0.499539581613,0.866278155015,0.0,0.0,0.0,0.0,0.0,0.0,0.0,0.0,0.0,-3.3e-05,-0.000671,-0.000688,0.0,0.0,0.0,0.0,0.0,0.0,0.0,0.0,0.0,-0.063,0.017,-9.554,0.0,0.0,0.0,0.0,0.0,0.0,0.0,0.0,0.0
1581113389694224096,117,1581113389694123029,,0.864067276185,-0.0030447319064,-0.49952445502,0.866286832805,0.0,0.0,0.0,0.0,0.0,0.0,0.0,0.0,0.0,0.000117,0.00033,-1.1e-05,0.0,0.0,0.0,0.0,0.0,0.0,0.0,0.0,0.0,-0.066,0.02,-9.58,0.0,0.0,0.0,0.0,0.0,0.0,0.0,0.0,0.0
1581113389720732878,118,1581113389720623016,,0.864067276185,-0.00303714043094,-0.499532021891,0.866282514287,0.0,0.0,0.0,0.0,0.0,0.0,0.0,0.0,0.0,0.000966,0.001393,0.00054,0.0,0.0,0.0,0.0,0.0,0.0,0.0,0.0,0.0,-0.078,0.029,-9.623,0.0,0.0,0.0,0.0,0.0,0.0,0.0,0.0,0.0
1581113389744592192,119,1581113389744484901,,0.864049704601,-0.00304460521838,-0.499554693831,0.866269395584,0.0,0.0,0.0,0.0,0.0,0.0,0.0,0.0,0.0,-0.001271,-0.000609,-0.000308,0.0,0.0,0.0,0.0,0.0,0.0,0.0,0.0,0.0,-0.104,0.041,-9.616,0.0,0.0,0.0,0.0,0.0,0.0,0.0,0.0,0.0
1581113389770342908,120,1581113389770221948,,0.864040918414,-0.00305213319721,-0.499562246287,0.86626499536,0.0,0.0,0.0,0.0,0.0,0.0,0.0,0.0,0.0,0.001542,0.000711,0.000127,0.0,0.0,0.0,0.0,0.0,0.0,0.0,0.0,0.0,-0.092,0.024,-9.617,0.0,0.0,0.0,0.0,0.0,0.0,0.0,0.0,0.0
1581113389794725976,121,1581113389794600963,,0.864040918414,-0.00305213319721,-0.499562246287,0.86626499536,0.0,0.0,0.0,0.0,0.0,0.0,0.0,0.0,0.0,-0.000434,0.000402,0.000378,0.0,0.0,0.0,0.0,0.0,0.0,0.0,0.0,0.0,-0.072,0.037,-9.601,0.0,0.0,0.0,0.0,0.0,0.0,0.0,0.0,0.0
1581113389820106124,122,1581113389819999933,,0.864058490525,-0.00304466856286,-0.499539574501,0.866278114326,0.0,0.0,0.0,0.0,0.0,0.0,0.0,0.0,0.0,-0.000294,0.000359,-0.00025,0.0,0.0,0.0,0.0,0.0,0.0,0.0,0.0,0.0,-0.092,0.025,-9.602,0.0,0.0,0.0,0.0,0.0,0.0,0.0,0.0,0.0
1581113389845717210,123,1581113389845614910,,0.864062895594,-0.00305665092105,-0.499524421216,0.866286823727,0.0,0.0,0.0,0.0,0.0,0.0,0.0,0.0,0.0,0.0007,-0.00123,0.001068,0.0,0.0,0.0,0.0,0.0,0.0,0.0,0.0,0.0,-0.089,0.045,-9.615,0.0,0.0,0.0,0.0,0.0,0.0,0.0,0.0,0.0
1581113389870638228,124,1581113389870529890,,0.864067276185,-0.00305991508417,-0.499509321052,0.866295469444,0.0,0.0,0.0,0.0,0.0,0.0,0.0,0.0,0.0,0.000462,0.000216,0.000971,0.0,0.0,0.0,0.0,0.0,0.0,0.0,0.0,0.0,-0.084,0.035,-9.58,0.0,0.0,0.0,0.0,0.0,0.0,0.0,0.0,0.0
1581113389894850445,125,1581113389894716024,,0.864062895594,-0.00307183404236,-0.499509287039,0.86629546031,0.0,0.0,0.0,0.0,0.0,0.0,0.0,0.0,0.0,-0.000909,-0.000272,0.000554,0.0,0.0,0.0,0.0,0.0,0.0,0.0,0.0,0.0,-0.069,0.03,-9.576,0.0,0.0,0.0,0.0,0.0,0.0,0.0,0.0,0.0
1581113389920319729,126,1581113389920142889,,0.864054085324,-0.00307064398793,-0.499516893215,0.866290996675,0.0,0.0,0.0,0.0,0.0,0.0,0.0,0.0,0.0,0.000226,0.000258,0.001045,0.0,0.0,0.0,0.0,0.0,0.0,0.0,0.0,0.0,-0.081,0.029,-9.605,0.0,0.0,0.0,0.0,0.0,0.0,0.0,0.0,0.0
1581113389944294714,127,1581113389944133043,,0.864054085324,-0.00307064398793,-0.499516893215,0.866290996675,0.0,0.0,0.0,0.0,0.0,0.0,0.0,0.0,0.0,0.000983,-0.000997,0.000455,0.0,0.0,0.0,0.0,0.0,0.0,0.0,0.0,0.0,-0.079,0.002,-9.619,0.0,0.0,0.0,0.0,0.0,0.0,0.0,0.0,0.0
1581113389970805364,128,1581113389970662117,,0.86404531154,-0.00307493944764,-0.499531985954,0.866282310185,0.0,0.0,0.0,0.0,0.0,0.0,0.0,0.0,0.0,6e-06,8.3e-05,-0.001097,0.0,0.0,0.0,0.0,0.0,0.0,0.0,0.0,0.0,-0.1,0.025,-9.602,0.0,0.0,0.0,0.0,0.0,0.0,0.0,0.0,0.0
1581113389995673438,129,1581113389995565891,,0.864045323746,-0.00308689028493,-0.499524391975,0.866286660202,0.0,0.0,0.0,0.0,0.0,0.0,0.0,0.0,0.0,0.000666,0.000902,-0.001441,0.0,0.0,0.0,0.0,0.0,0.0,0.0,0.0,0.0,-0.083,0.021,-9.599,0.0,0.0,0.0,0.0,0.0,0.0,0.0,0.0,0.0
1581113390020397117,130,1581113390020253896,,0.864054121942,-0.00307612977613,-0.499524379846,0.866286773783,0.0,0.0,0.0,0.0,0.0,0.0,0.0,0.0,0.0,-0.00089,0.000847,0.000748,0.0,0.0,0.0,0.0,0.0,0.0,0.0,0.0,0.0,-0.092,0.01,-9.606,0.0,0.0,0.0,0.0,0.0,0.0,0.0,0.0,0.0
1581113390045472055,131,1581113390045325040,,0.864062919809,-0.0030805521236,-0.49950923335,0.866295523617,0.0,0.0,0.0,0.0,0.0,0.0,0.0,0.0,0.0,0.000968,-0.000386,0.000859,0.0,0.0,0.0,0.0,0.0,0.0,0.0,0.0,0.0,-0.1,0.043,-9.597,0.0,0.0,0.0,0.0,0.0,0.0,0.0,0.0,0.0
1581113390070256815,132,1581113390070099115,,0.864049741022,-0.0030880487893,-0.499524345522,0.866286764566,0.0,0.0,0.0,0.0,0.0,0.0,0.0,0.0,0.0,0.000318,0.000243,-0.001868,0.0,0.0,0.0,0.0,0.0,0.0,0.0,0.0,0.0,-0.072,0.006,-9.586,0.0,0.0,0.0,0.0,0.0,0.0,0.0,0.0,0.0
1581113390095522821,133,1581113390095392942,,0.864049741022,-0.0030880487893,-0.499524345522,0.866286764566,0.0,0.0,0.0,0.0,0.0,0.0,0.0,0.0,0.0,0.000297,0.000899,0.001196,0.0,0.0,0.0,0.0,0.0,0.0,0.0,0.0,0.0,-0.12,0.017,-9.589,0.0,0.0,0.0,0.0,0.0,0.0,0.0,0.0,0.0
1581113390120432560,134,1581113390120291948,,0.864049753031,-0.00309240796145,-0.499524318554,0.866286796158,0.0,0.0,0.0,0.0,0.0,0.0,0.0,0.0,0.0,0.000227,0.000236,0.000182,0.0,0.0,0.0,0.0,0.0,0.0,0.0,0.0,0.0,-0.065,0.037,-9.597,0.0,0.0,0.0,0.0,0.0,0.0,0.0,0.0,0.0
1581113390145849060,135,1581113390145591974,,0.864032168384,-0.00308792228428,-0.49955458433,0.866269327349,0.0,0.0,0.0,0.0,0.0,0.0,0.0,0.0,0.0,-0.000655,-0.001026,-0.000822,0.0,0.0,0.0,0.0,0.0,0.0,0.0,0.0,0.0,-0.078,0.026,-9.598,0.0,0.0,0.0,0.0,0.0,0.0,0.0,0.0,0.0
1581113390170459897,136,1581113390170248985,,0.864023393679,-0.00309221859832,-0.49956967654,0.866260639939,0.0,0.0,0.0,0.0,0.0,0.0,0.0,0.0,0.0,0.000682,0.000482,-0.000442,0.0,0.0,0.0,0.0,0.0,0.0,0.0,0.0,0.0,-0.101,0.033,-9.567,0.0,0.0,0.0,0.0,0.0,0.0,0.0,0.0,0.0
1581113390195470323,137,1581113390195303916,,0.864023405621,-0.00310416931134,-0.499562082334,0.866264990174,0.0,0.0,0.0,0.0,0.0,0.0,0.0,0.0,0.0,0.001257,-0.000187,-0.000813,0.0,0.0,0.0,0.0,0.0,0.0,0.0,0.0,0.0,-0.097,0.026,-9.609,0.0,0.0,0.0,0.0,0.0,0.0,0.0,0.0,0.0
1581113390220189833,138,1581113390220077037,,0.864019000223,-0.0030997782105,-0.499569668973,0.866260599073,0.0,0.0,0.0,0.0,0.0,0.0,0.0,0.0,0.0,-0.001117,0.000814,0.00012,0.0,0.0,0.0,0.0,0.0,0.0,0.0,0.0,0.0,-0.099,0.036,-9.57,0.0,0.0,0.0,0.0,0.0,0.0,0.0,0.0,0.0
1581113390245663922,139,1581113390245544910,,0.86402777506,-0.0030954819726,-0.49955457683,0.866269286445,0.0,0.0,0.0,0.0,0.0,0.0,0.0,0.0,0.0,-0.0002,0.000497,0.00047,0.0,0.0,0.0,0.0,0.0,0.0,0.0,0.0,0.0,-0.081,0.026,-9.567,0.0,0.0,0.0,0.0,0.0,0.0,0.0,0.0,0.0
1581113390270532207,140,1581113390270406961,,0.864036561642,-0.00308795391089,-0.499547024685,0.866273686752,0.0,0.0,0.0,0.0,0.0,0.0,0.0,0.0,0.0,-0.000504,-0.000939,8.6e-05,0.0,0.0,0.0,0.0,0.0,0.0,0.0,0.0,0.0,-0.074,0.027,-9.591,0.0,0.0,0.0,0.0,0.0,0.0,0.0,0.0,0.0
1581113390295587021,141,1581113390295459985,,0.864023369596,-0.00308349946215,-0.499569730434,0.866260576684,0.0,0.0,0.0,0.0,0.0,0.0,0.0,0.0,0.0,-0.001048,-0.00072,-0.000684,0.0,0.0,0.0,0.0,0.0,0.0,0.0,0.0,0.0,-0.102,0.048,-9.592,0.0,0.0,0.0,0.0,0.0,0.0,0.0,0.0,0.0
1581113390320353123,142,1581113390320147037,,0.864018976141,-0.00308346776887,-0.499577289964,0.866256217083,0.0,0.0,0.0,0.0,0.0,0.0,0.0,0.0,0.0,-0.000859,0.000411,-0.00033,0.0,0.0,0.0,0.0,0.0,0.0,0.0,0.0,0.0,-0.105,0.044,-9.613,0.0,0.0,0.0,0.0,0.0,0.0,0.0,0.0,0.0
1581113390345157594,143,1581113390345005035,,0.86400579538,-0.00307578157108,-0.499607535105,0.866238818894,0.0,0.0,0.0,0.0,0.0,0.0,0.0,0.0,0.0,0.00045,0.000466,0.000612,0.0,0.0,0.0,0.0,0.0,0.0,0.0,0.0,0.0,-0.096,0.026,-9.583,0.0,0.0,0.0,0.0,0.0,0.0,0.0,0.0,0.0
1581113390380214507,144,1581113390379741907,,0.863983826128,-0.00308321421415,-0.499637764839,0.866221337898,0.0,0.0,0.0,0.0,0.0,0.0,0.0,0.0,0.0,0.000757,-0.000357,-0.000696,0.0,0.0,0.0,0.0,0.0,0.0,0.0,0.0,0.0,-0.121,0.037,-9.604,0.0,0.0,0.0,0.0,0.0,0.0,0.0,0.0,0.0
1581113390399749077,145,1581113390399538040,,0.8639926261,-0.00309522864691,-0.499615052617,0.866234408845,0.0,0.0,0.0,0.0,0.0,0.0,0.0,0.0,0.0,3e-06,-0.002009,-0.000287,0.0,0.0,0.0,0.0,0.0,0.0,0.0,0.0,0.0,-0.056,0.019,-9.584,0.0,0.0,0.0,0.0,0.0,0.0,0.0,0.0,0.0
1581113390420401720,146,1581113390420234918,,0.86398822011,-0.00308324590932,-0.499630205613,0.866225698027,0.0,0.0,0.0,0.0,0.0,0.0,0.0,0.0,0.0,-0.000801,1.7e-05,-0.001726,0.0,0.0,0.0,0.0,0.0,0.0,0.0,0.0,0.0,-0.093,0.031,-9.596,0.0,0.0,0.0,0.0,0.0,0.0,0.0,0.0,0.0
1581113390445117590,147,1581113390444976091,,0.863992614026,-0.00308327760424,-0.499622646349,0.86623005809,0.0,0.0,0.0,0.0,0.0,0.0,0.0,0.0,0.0,0.001072,0.000118,-0.001054,0.0,0.0,0.0,0.0,0.0,0.0,0.0,0.0,0.0,-0.106,0.048,-9.609,0.0,0.0,0.0,0.0,0.0,0.0,0.0,0.0,0.0
1581113390470409420,148,1581113390470269918,,0.864001389521,-0.00308657231549,-0.499599987845,0.866243065177,0.0,0.0,0.0,0.0,0.0,0.0,0.0,0.0,0.0,0.000677,3.9e-05,0.000449,0.0,0.0,0.0,0.0,0.0,0.0,0.0,0.0,0.0,-0.085,0.029,-9.597,0.0,0.0,0.0,0.0,0.0,0.0,0.0,0.0,0.0
1581113390495648139,149,1581113390495541095,,0.863979407736,-0.00307446206229,-0.499645377763,0.86621691418,0.0,0.0,0.0,0.0,0.0,0.0,0.0,0.0,0.0,0.001187,-9.9e-05,2.6e-05,0.0,0.0,0.0,0.0,0.0,0.0,0.0,0.0,0.0,-0.074,0.037,-9.573,0.0,0.0,0.0,0.0,0.0,0.0,0.0,0.0,0.0
1581113390520834976,150,1581113390520720958,,0.863992589681,-0.00305937534889,-0.499637833074,0.866221356212,0.0,0.0,0.0,0.0,0.0,0.0,0.0,0.0,0.0,0.000841,-0.000428,-0.000123,0.0,0.0,0.0,0.0,0.0,0.0,0.0,0.0,0.0,-0.09,0.032,-9.548,0.0,0.0,0.0,0.0,0.0,0.0,0.0,0.0,0.0
1581113390545612587,151,1581113390545492887,,0.863996983532,-0.00306699819723,-0.499622707354,0.86623003552,0.0,0.0,0.0,0.0,0.0,0.0,0.0,0.0,0.0,-0.000957,-0.00017,8.4e-05,0.0,0.0,0.0,0.0,0.0,0.0,0.0,0.0,0.0,-0.082,0.017,-9.6,0.0,0.0,0.0,0.0,0.0,0.0,0.0,0.0,0.0
1581113390570717120,152,1581113390570588111,,0.864001377316,-0.00306702998581,-0.499615148052,0.866234395517,0.0,0.0,0.0,0.0,0.0,0.0,0.0,0.0,0.0,0.000261,0.001376,-0.000106,0.0,0.0,0.0,0.0,0.0,0.0,0.0,0.0,0.0,-0.088,0.025,-9.601,0.0,0.0,0.0,0.0,0.0,0.0,0.0,0.0,0.0
1581113390603319921,153,1581113390602838039,,0.864010164687,-0.00306709356227,-0.499600029333,0.866243115315,0.0,0.0,0.0,0.0,0.0,0.0,0.0,0.0,0.0,-0.000897,0.000376,-4.7e-05,0.0,0.0,0.0,0.0,0.0,0.0,0.0,0.0,0.0,-0.066,0.012,-9.592,0.0,0.0,0.0,0.0,0.0,0.0,0.0,0.0,0.0
1581113390621834145,154,1581113390621643066,,0.864018951795,-0.00306715713779,-0.499584910463,0.866251834848,0.0,0.0,0.0,0.0,0.0,0.0,0.0,0.0,0.0,-0.001327,-0.000146,0.001143,0.0,0.0,0.0,0.0,0.0,0.0,0.0,0.0,0.0,-0.081,0.044,-9.57,0.0,0.0,0.0,0.0,0.0,0.0,0.0,0.0,0.0
1581113390645520534,155,1581113390645401000,,0.864005771035,-0.00306706177416,-0.499607588712,0.866238755449,0.0,0.0,0.0,0.0,0.0,0.0,0.0,0.0,0.0,1.2e-05,0.000727,-0.000372,0.0,0.0,0.0,0.0,0.0,0.0,0.0,0.0,0.0,-0.087,0.03,-9.592,0.0,0.0,0.0,0.0,0.0,0.0,0.0,0.0,0.0
1581113390670166762,156,1581113390670012950,,0.864010152416,-0.00305514245261,-0.499607622621,0.866238764552,0.0,0.0,0.0,0.0,0.0,0.0,0.0,0.0,0.0,-0.000295,-0.000569,0.00192,0.0,0.0,0.0,0.0,0.0,0.0,0.0,0.0,0.0,-0.083,0.047,-9.604,0.0,0.0,0.0,0.0,0.0,0.0,0.0,0.0,0.0
1581113390695095613,157,1581113390694991111,,0.864010164687,-0.00305191121632,-0.499615162472,0.866234477223,0.0,0.0,0.0,0.0,0.0,0.0,0.0,0.0,0.0,0.0005,0.000211,0.000196,0.0,0.0,0.0,0.0,0.0,0.0,0.0,0.0,0.0,-0.067,0.036,-9.606,0.0,0.0,0.0,0.0,0.0,0.0,0.0,0.0,0.0
1581113390721409510,158,1581113390720784902,,0.864005758763,-0.00304751947296,-0.499622748389,0.866230085479,0.0,0.0,0.0,0.0,0.0,0.0,0.0,0.0,0.0,0.000534,0.000258,-0.000834,0.0,0.0,0.0,0.0,0.0,0.0,0.0,0.0,0.0,-0.069,0.017,-9.576,0.0,0.0,0.0,0.0,0.0,0.0,0.0,0.0,0.0
1581113390745785821,159,1581113390745625019,,0.863996958923,-0.00304309575232,-0.499637893455,0.866221333473,0.0,0.0,0.0,0.0,0.0,0.0,0.0,0.0,0.0,-0.000474,0.000428,-2.4e-05,0.0,0.0,0.0,0.0,0.0,0.0,0.0,0.0,0.0,-0.094,-0.0,-9.6,0.0,0.0,0.0,0.0,0.0,0.0,0.0,0.0,0.0
1581113390770885515,160,1581113390770766973,,0.864005746426,-0.00303556828809,-0.499630341251,0.866225734433,0.0,0.0,0.0,0.0,0.0,0.0,0.0,0.0,0.0,-0.000299,-0.000379,-0.000995,0.0,0.0,0.0,0.0,0.0,0.0,0.0,0.0,0.0,-0.09,0.021,-9.586,0.0,0.0,0.0,0.0,0.0,0.0,0.0,0.0,0.0
1581113390795403027,161,1581113390795248985,,0.864014546003,-0.00303999186626,-0.499615196174,0.866234486269,0.0,0.0,0.0,0.0,0.0,0.0,0.0,0.0,0.0,-0.000278,-5.2e-05,0.000119,0.0,0.0,0.0,0.0,0.0,0.0,0.0,0.0,0.0,-0.08,0.032,-9.596,0.0,0.0,0.0,0.0,0.0,0.0,0.0,0.0,0.0
1581113390820218361,162,1581113390820060968,,0.86399257741,-0.00304742413621,-0.499645426068,0.866217005089,0.0,0.0,0.0,0.0,0.0,0.0,0.0,0.0,0.0,-0.000564,-0.000275,-0.001541,0.0,0.0,0.0,0.0,0.0,0.0,0.0,0.0,0.0,-0.082,0.02,-9.581,0.0,0.0,0.0,0.0,0.0,0.0,0.0,0.0,0.0
1581113390845772312,163,1581113390845659017,,0.864001365045,-0.00303989664435,-0.499637873968,0.866221406077,0.0,0.0,0.0,0.0,0.0,0.0,0.0,0.0,0.0,-0.001408,-0.000279,0.001086,0.0,0.0,0.0,0.0,0.0,0.0,0.0,0.0,0.0,-0.063,0.044,-9.604,0.0,0.0,0.0,0.0,0.0,0.0,0.0,0.0,0.0
1581113390870944613,164,1581113390870822906,,0.86399697126,-0.00303227396678,-0.499652999359,0.866212726344,0.0,0.0,0.0,0.0,0.0,0.0,0.0,0.0,0.0,0.000211,0.001233,-0.00083,0.0,0.0,0.0,0.0,0.0,0.0,0.0,0.0,0.0,-0.092,0.028,-9.603,0.0,0.0,0.0,0.0,0.0,0.0,0.0,0.0,0.0
1581113390895869966,165,1581113390895760059,,0.863983777176,-0.00302781836255,-0.499675703026,0.866199613425,0.0,0.0,0.0,0.0,0.0,0.0,0.0,0.0,0.0,-0.000943,-0.001258,-2.5e-05,0.0,0.0,0.0,0.0,0.0,0.0,0.0,0.0,0.0,-0.09,0.034,-9.592,0.0,0.0,0.0,0.0,0.0,0.0,0.0,0.0,0.0
1581113390920556856,166,1581113390920435905,,0.863983777176,-0.00302781836255,-0.499675703026,0.866199613425,0.0,0.0,0.0,0.0,0.0,0.0,0.0,0.0,0.0,0.000206,-0.000457,-0.000334,0.0,0.0,0.0,0.0,0.0,0.0,0.0,0.0,0.0,-0.093,0.062,-9.612,0.0,0.0,0.0,0.0,0.0,0.0,0.0,0.0,0.0
1581113390945239310,167,1581113390945081949,,0.863996946521,-0.00302355337636,-0.499653052206,0.866212662806,0.0,0.0,0.0,0.0,0.0,0.0,0.0,0.0,0.0,-0.000365,0.000748,8e-05,0.0,0.0,0.0,0.0,0.0,0.0,0.0,0.0,0.0,-0.07,0.025,-9.6,0.0,0.0,0.0,0.0,0.0,0.0,0.0,0.0,0.0
1581113390970411708,168,1581113390970258951,,0.864001340305,-0.00301599418086,-0.499653059087,0.866212703541,0.0,0.0,0.0,0.0,0.0,0.0,0.0,0.0,0.0,0.000307,-0.00154,-0.001584,0.0,0.0,0.0,0.0,0.0,0.0,0.0,0.0,0.0,-0.084,0.0,-9.621,0.0,0.0,0.0,0.0,0.0,0.0,0.0,0.0,0.0
1581113390995816485,169,1581113390995668888,,0.863992552671,-0.00302352154091,-0.499660611318,0.866208302477,0.0,0.0,0.0,0.0,0.0,0.0,0.0,0.0,0.0,-0.000181,0.000498,0.000228,0.0,0.0,0.0,0.0,0.0,0.0,0.0,0.0,0.0,-0.111,0.017,-9.619,0.0,0.0,0.0,0.0,0.0,0.0,0.0,0.0,0.0
1581113391020421543,170,1581113391020273923,,0.864005746426,-0.00302797720995,-0.499637907462,0.866221415066,0.0,0.0,0.0,0.0,0.0,0.0,0.0,0.0,0.0,0.000117,-0.00012,3.3e-05,0.0,0.0,0.0,0.0,0.0,0.0,0.0,0.0,0.0,-0.106,0.044,-9.62,0.0,0.0,0.0,0.0,0.0,0.0,0.0,0.0,0.0
1581113391045795998,171,1581113391045674085,,0.864010140079,-0.00302800897873,-0.499630348235,0.866225775197,0.0,0.0,0.0,0.0,0.0,0.0,0.0,0.0,0.0,-0.000795,0.000752,-0.001037,0.0,0.0,0.0,0.0,0.0,0.0,0.0,0.0,0.0,-0.093,0.038,-9.594,0.0,0.0,0.0,0.0,0.0,0.0,0.0,0.0,0.0
1581113391070357193,172,1581113391070200920,,0.864023308239,-0.00301615316438,-0.499615262952,0.866234504194,0.0,0.0,0.0,0.0,0.0,0.0,0.0,0.0,0.0,-0.001458,-0.001134,-0.000795,0.0,0.0,0.0,0.0,0.0,0.0,0.0,0.0,0.0,-0.106,0.007,-9.61,0.0,0.0,0.0,0.0,0.0,0.0,0.0,0.0,0.0
1581113391095239028,173,1581113391095077991,,0.864032094952,-0.00302380805162,-0.499592577936,0.866247543058,0.0,0.0,0.0,0.0,0.0,0.0,0.0,0.0,0.0,0.000495,0.000923,1e-05,0.0,0.0,0.0,0.0,0.0,0.0,0.0,0.0,0.0,-0.083,0.047,-9.576,0.0,0.0,0.0,0.0,0.0,0.0,0.0,0.0,0.0
1581113391120584147,174,1581113391120469093,,0.864018914783,-0.00303130380774,-0.499607689815,0.866238782589,0.0,0.0,0.0,0.0,0.0,0.0,0.0,0.0,0.0,0.000531,-0.000728,-0.000853,0.0,0.0,0.0,0.0,0.0,0.0,0.0,0.0,0.0,-0.082,0.034,-9.603,0.0,0.0,0.0,0.0,0.0,0.0,0.0,0.0,0.0
1581113391145803158,175,1581113391145684957,,0.864036488209,-0.00302383988499,-0.499585018482,0.866251902793,0.0,0.0,0.0,0.0,0.0,0.0,0.0,0.0,0.0,0.000284,-0.000202,0.000114,0.0,0.0,0.0,0.0,0.0,0.0,0.0,0.0,0.0,-0.098,0.028,-9.617,0.0,0.0,0.0,0.0,0.0,0.0,0.0,0.0,0.0
1581113391170478359,176,1581113391170329093,,0.864018927187,-0.00305084631727,-0.499592530469,0.866247452369,0.0,0.0,0.0,0.0,0.0,0.0,0.0,0.0,0.0,-0.000707,-0.001316,-0.000396,0.0,0.0,0.0,0.0,0.0,0.0,0.0,0.0,0.0,-0.115,0.031,-9.594,0.0,0.0,0.0,0.0,0.0,0.0,0.0,0.0,0.0
1581113391195552483,177,1581113391195385932,,0.864010127676,-0.00305401406304,-0.499600109458,0.866243019654,0.0,0.0,0.0,0.0,0.0,0.0,0.0,0.0,0.0,-0.000337,-0.00075,-0.00078,0.0,0.0,0.0,0.0,0.0,0.0,0.0,0.0,0.0,-0.081,0.029,-9.59,0.0,0.0,0.0,0.0,0.0,0.0,0.0,0.0,0.0
1581113391220279004,178,1581113391220113039,,0.864032094952,-0.00303899086937,-0.499577445119,0.866256180791,0.0,0.0,0.0,0.0,0.0,0.0,0.0,0.0,0.0,-0.000295,-0.000546,-0.000215,0.0,0.0,0.0,0.0,0.0,0.0,0.0,0.0,0.0,-0.1,0.027,-9.576,0.0,0.0,0.0,0.0,0.0,0.0,0.0,0.0,0.0
1581113391246440597,179,1581113391246257066,,0.864018927187,-0.00305084631727,-0.499592530469,0.866247452369,0.0,0.0,0.0,0.0,0.0,0.0,0.0,0.0,0.0,0.000172,0.000729,-6.1e-05,0.0,0.0,0.0,0.0,0.0,0.0,0.0,0.0,0.0,-0.087,0.033,-9.594,0.0,0.0,0.0,0.0,0.0,0.0,0.0,0.0,0.0
1581113391270441429,180,1581113391270288944,,0.864018939524,-0.00306279743688,-0.49958493721,0.866251803028,0.0,0.0,0.0,0.0,0.0,0.0,0.0,0.0,0.0,-0.000462,-3.5e-05,-0.000494,0.0,0.0,0.0,0.0,0.0,0.0,0.0,0.0,0.0,-0.079,0.03,-9.586,0.0,0.0,0.0,0.0,0.0,0.0,0.0,0.0,0.0
1581113391295559594,181,1581113391295433044,,0.864018927187,-0.00305084631727,-0.499592530469,0.866247452369,0.0,0.0,0.0,0.0,0.0,0.0,0.0,0.0,0.0,0.00074,0.000821,0.000205,0.0,0.0,0.0,0.0,0.0,0.0,0.0,0.0,0.0,-0.083,0.036,-9.586,0.0,0.0,0.0,0.0,0.0,0.0,0.0,0.0,0.0
1581113391320455242,182,1581113391320301055,,0.864014533666,-0.00305840581616,-0.499592523372,0.866247411407,0.0,0.0,0.0,0.0,0.0,0.0,0.0,0.0,0.0,0.00055,0.000138,-0.000482,0.0,0.0,0.0,0.0,0.0,0.0,0.0,0.0,0.0,-0.095,0.039,-9.59,0.0,0.0,0.0,0.0,0.0,0.0,0.0,0.0,0.0
1581113391345252987,183,1581113391345097064,,0.864014521263,-0.00306163757114,-0.499584983521,0.866251698123,0.0,0.0,0.0,0.0,0.0,0.0,0.0,0.0,0.0,0.000351,0.000638,-0.001199,0.0,0.0,0.0,0.0,0.0,0.0,0.0,0.0,0.0,-0.086,0.025,-9.59,0.0,0.0,0.0,0.0,0.0,0.0,0.0,0.0,0.0
1581113391371657125,184,1581113391371546030,,0.864018914783,-0.00306926123025,-0.499569857396,0.866260376262,0.0,0.0,0.0,0.0,0.0,0.0,0.0,0.0,0.0,-5.3e-05,-5.2e-05,0.000284,0.0,0.0,0.0,0.0,0.0,0.0,0.0,0.0,0.0,-0.079,0.042,-9.616,0.0,0.0,0.0,0.0,0.0,0.0,0.0,0.0,0.0
1581113391396000095,185,1581113391395885944,,0.864018914783,-0.00307685294162,-0.499562290686,0.8662646946,0.0,0.0,0.0,0.0,0.0,0.0,0.0,0.0,0.0,-0.00073,-0.000358,-0.000674,0.0,0.0,0.0,0.0,0.0,0.0,0.0,0.0,0.0,-0.079,0.035,-9.606,0.0,0.0,0.0,0.0,0.0,0.0,0.0,0.0,0.0
1581113391420714193,186,1581113391420599937,,0.864014521263,-0.00307682084263,-0.499569850252,0.866260335064,0.0,0.0,0.0,0.0,0.0,0.0,0.0,0.0,0.0,-0.000223,-0.000212,0.001014,0.0,0.0,0.0,0.0,0.0,0.0,0.0,0.0,0.0,-0.089,0.04,-9.608,0.0,0.0,0.0,0.0,0.0,0.0,0.0,0.0,0.0
1581113391445436015,187,1581113391445286035,,0.864014508794,-0.00307246127315,-0.499569877083,0.866260302932,0.0,0.0,0.0,0.0,0.0,0.0,0.0,0.0,0.0,0.000777,-7.4e-05,-0.000496,0.0,0.0,0.0,0.0,0.0,0.0,0.0,0.0,0.0,-0.092,0.045,-9.589,0.0,0.0,0.0,0.0,0.0,0.0,0.0,0.0,0.0
1581113391470268949,188,1581113391470113039,,0.864014521263,-0.00307682084263,-0.499569850252,0.866260335064,0.0,0.0,0.0,0.0,0.0,0.0,0.0,0.0,0.0,0.001241,0.000653,-0.000747,0.0,0.0,0.0,0.0,0.0,0.0,0.0,0.0,0.0,-0.098,0.012,-9.623,0.0,0.0,0.0,0.0,0.0,0.0,0.0,0.0,0.0
1581113391495895324,189,1581113391495779991,,0.864010127676,-0.00306919710767,-0.499584976415,0.866251656991,0.0,0.0,0.0,0.0,0.0,0.0,0.0,0.0,0.0,-0.000513,0.002029,0.000792,0.0,0.0,0.0,0.0,0.0,0.0,0.0,0.0,0.0,-0.064,0.026,-9.604,0.0,0.0,0.0,0.0,0.0,0.0,0.0,0.0,0.0
1581113391521533110,190,1581113391521408081,,0.864010140079,-0.00306596531482,-0.499592516238,0.866247370379,0.0,0.0,0.0,0.0,0.0,0.0,0.0,0.0,0.0,3.5e-05,-0.000984,-0.000233,0.0,0.0,0.0,0.0,0.0,0.0,0.0,0.0,0.0,-0.088,0.019,-9.6,0.0,0.0,0.0,0.0,0.0,0.0,0.0,0.0,0.0
1581113391545518318,191,1581113391545402050,,0.864001365045,-0.00307785265029,-0.49960004164,0.866243001449,0.0,0.0,0.0,0.0,0.0,0.0,0.0,0.0,0.0,-0.00023,0.00052,-0.001558,0.0,0.0,0.0,0.0,0.0,0.0,0.0,0.0,0.0,-0.078,0.029,-9.599,0.0,0.0,0.0,0.0,0.0,0.0,0.0,0.0,0.0
1581113391573472070,192,1581113391573277950,,0.863988183495,-0.00307775685907,-0.499622719658,0.866229921653,0.0,0.0,0.0,0.0,0.0,0.0,0.0,0.0,0.0,-0.001827,0.000171,0.000494,0.0,0.0,0.0,0.0,0.0,0.0,0.0,0.0,0.0,-0.075,0.04,-9.61,0.0,0.0,0.0,0.0,0.0,0.0,0.0,0.0,0.0
1581113391611086049,193,1581113391609349012,,0.86399697126,-0.00307782072012,-0.499607601017,0.866238641583,0.0,0.0,0.0,0.0,0.0,0.0,0.0,0.0,0.0,-8.5e-05,0.000587,0.000539,0.0,0.0,0.0,0.0,0.0,0.0,0.0,0.0,0.0,-0.105,0.027,-9.609,0.0,0.0,0.0,0.0,0.0,0.0,0.0,0.0,0.0
1581113391626242481,194,1581113391626061916,,0.863996983532,-0.00308977194302,-0.499600007419,0.866242992262,0.0,0.0,0.0,0.0,0.0,0.0,0.0,0.0,0.0,0.000558,3.2e-05,0.000988,0.0,0.0,0.0,0.0,0.0,0.0,0.0,0.0,0.0,-0.085,0.019,-9.638,0.0,0.0,0.0,0.0,0.0,0.0,0.0,0.0,0.0
1581113391645878786,195,1581113391645747900,,0.863988195766,-0.00308211688969,-0.49962269278,0.866229953551,0.0,0.0,0.0,0.0,0.0,0.0,0.0,0.0,0.0,-0.000527,-0.000251,2e-06,0.0,0.0,0.0,0.0,0.0,0.0,0.0,0.0,0.0,-0.097,0.039,-9.611,0.0,0.0,0.0,0.0,0.0,0.0,0.0,0.0,0.0
1581113391671497992,196,1581113391671358108,,0.863983801784,-0.00308967623557,-0.499622685436,0.866229912468,0.0,0.0,0.0,0.0,0.0,0.0,0.0,0.0,0.0,-9.6e-05,-0.000645,-0.00085,0.0,0.0,0.0,0.0,0.0,0.0,0.0,0.0,0.0,-0.105,0.025,-9.595,0.0,0.0,0.0,0.0,0.0,0.0,0.0,0.0,0.0
1581113391695520601,197,1581113391695379018,,0.863983801784,-0.00308967623557,-0.499622685436,0.866229912468,0.0,0.0,0.0,0.0,0.0,0.0,0.0,0.0,0.0,0.001261,0.000383,-0.00041,0.0,0.0,0.0,0.0,0.0,0.0,0.0,0.0,0.0,-0.065,0.043,-9.576,0.0,0.0,0.0,0.0,0.0,0.0,0.0,0.0,0.0
1581113391721123266,198,1581113391721008062,,0.863966212928,-0.00307759720235,-0.499660515593,0.866208120675,0.0,0.0,0.0,0.0,0.0,0.0,0.0,0.0,0.0,0.000801,0.000111,-0.000554,0.0,0.0,0.0,0.0,0.0,0.0,0.0,0.0,0.0,-0.086,0.028,-9.612,0.0,0.0,0.0,0.0,0.0,0.0,0.0,0.0,0.0
1581113391745773186,199,1581113391745662927,,0.863961818618,-0.0030775652703,-0.499668074665,0.866203760281,0.0,0.0,0.0,0.0,0.0,0.0,0.0,0.0,0.0,-0.0006,-0.000711,-0.000953,0.0,0.0,0.0,0.0,0.0,0.0,0.0,0.0,0.0,-0.08,0.044,-9.584,0.0,0.0,0.0,0.0,0.0,0.0,0.0,0.0,0.0
1581113391771706671,200,1581113391771567106,,0.863979407736,-0.00307446206229,-0.499645377763,0.86621691418,0.0,0.0,0.0,0.0,0.0,0.0,0.0,0.0,0.0,1.6e-05,0.000187,0.000284,0.0,0.0,0.0,0.0,0.0,0.0,0.0,0.0,0.0,-0.076,0.033,-9.61,0.0,0.0,0.0,0.0,0.0,0.0,0.0,0.0,0.0
1581113391795759680,201,1581113391795623064,,0.86399697126,-0.00307022940549,-0.499615167596,0.866234322706,0.0,0.0,0.0,0.0,0.0,0.0,0.0,0.0,0.0,7.6e-05,-0.000443,-0.000351,0.0,0.0,0.0,0.0,0.0,0.0,0.0,0.0,0.0,-0.084,0.039,-9.61,0.0,0.0,0.0,0.0,0.0,0.0,0.0,0.0,0.0
1581113391821388326,202,1581113391821279048,,0.863983789513,-0.003070133727,-0.499637845386,0.866221242515,0.0,0.0,0.0,0.0,0.0,0.0,0.0,0.0,0.0,0.000964,0.000167,-0.001224,0.0,0.0,0.0,0.0,0.0,0.0,0.0,0.0,0.0,-0.098,0.041,-9.593,0.0,0.0,0.0,0.0,0.0,0.0,0.0,0.0,0.0
1581113391846396015,203,1581113391846263885,,0.863970594836,-0.00307326883944,-0.49965298332,0.866212449038,0.0,0.0,0.0,0.0,0.0,0.0,0.0,0.0,0.0,-0.000711,-0.000982,0.000746,0.0,0.0,0.0,0.0,0.0,0.0,0.0,0.0,0.0,-0.091,0.029,-9.609,0.0,0.0,0.0,0.0,0.0,0.0,0.0,0.0,0.0
1581113391871281879,204,1581113391871174097,,0.863957424241,-0.00307753333802,-0.4996756337,0.866199399822,0.0,0.0,0.0,0.0,0.0,0.0,0.0,0.0,0.0,0.001614,-0.000485,-0.000725,0.0,0.0,0.0,0.0,0.0,0.0,0.0,0.0,0.0,-0.089,0.036,-9.594,0.0,0.0,0.0,0.0,0.0,0.0,0.0,0.0,0.0
1581113391896079451,205,1581113391895939111,,0.863944252987,-0.00308179823004,-0.499698283702,0.866186349948,0.0,0.0,0.0,0.0,0.0,0.0,0.0,0.0,0.0,-5.8e-05,-0.00016,-0.000131,0.0,0.0,0.0,0.0,0.0,0.0,0.0,0.0,0.0,-0.09,0.032,-9.602,0.0,0.0,0.0,0.0,0.0,0.0,0.0,0.0,0.0
1581113391921634578,206,1581113391921518087,,0.863953042069,-0.0030742710934,-0.49969073209,0.866190751622,0.0,0.0,0.0,0.0,0.0,0.0,0.0,0.0,0.0,-0.001269,0.00131,0.000618,0.0,0.0,0.0,0.0,0.0,0.0,0.0,0.0,0.0,-0.103,0.049,-9.6,0.0,0.0,0.0,0.0,0.0,0.0,0.0,0.0,0.0
1581113391945857961,207,1581113391945746898,,0.863931068871,-0.00308170262757,-0.499720960236,0.86617326758,0.0,0.0,0.0,0.0,0.0,0.0,0.0,0.0,0.0,0.000775,-0.000799,0.000173,0.0,0.0,0.0,0.0,0.0,0.0,0.0,0.0,0.0,-0.089,0.021,-9.597,0.0,0.0,0.0,0.0,0.0,0.0,0.0,0.0,0.0
1581113391971416115,208,1581113391971290111,,0.863922291336,-0.0030935905266,-0.499728484678,0.86616889745,0.0,0.0,0.0,0.0,0.0,0.0,0.0,0.0,0.0,1.1e-05,-0.000493,-6.2e-05,0.0,0.0,0.0,0.0,0.0,0.0,0.0,0.0,0.0,-0.078,0.018,-9.605,0.0,0.0,0.0,0.0,0.0,0.0,0.0,0.0,0.0
1581113391995342530,209,1581113391995198011,,0.863922279131,-0.00309682032976,-0.499720945501,0.866173185349,0.0,0.0,0.0,0.0,0.0,0.0,0.0,0.0,0.0,-9.5e-05,-0.000758,0.00014,0.0,0.0,0.0,0.0,0.0,0.0,0.0,0.0,0.0,-0.095,0.046,-9.581,0.0,0.0,0.0,0.0,0.0,0.0,0.0,0.0,0.0
1581113392022268836,210,1581113392022136926,,0.863909069422,-0.00308800232476,-0.499743675662,0.866160038367,0.0,0.0,0.0,0.0,0.0,0.0,0.0,0.0,0.0,-0.001053,0.000372,-0.000343,0.0,0.0,0.0,0.0,0.0,0.0,0.0,0.0,0.0,-0.092,0.045,-9.573,0.0,0.0,0.0,0.0,0.0,0.0,0.0,0.0,0.0
1581113392046768403,211,1581113392046660900,,0.863926649428,-0.00307294885112,-0.499728572714,0.866168842791,0.0,0.0,0.0,0.0,0.0,0.0,0.0,0.0,0.0,0.000304,-0.000424,0.000472,0.0,0.0,0.0,0.0,0.0,0.0,0.0,0.0,0.0,-0.095,0.027,-9.604,0.0,0.0,0.0,0.0,0.0,0.0,0.0,0.0,0.0
1581113392071582578,212,1581113392071461915,,0.863926649428,-0.00307294885112,-0.499728572714,0.866168842791,0.0,0.0,0.0,0.0,0.0,0.0,0.0,0.0,0.0,-0.00038,0.00098,0.000295,0.0,0.0,0.0,0.0,0.0,0.0,0.0,0.0,0.0,-0.082,0.003,-9.616,0.0,0.0,0.0,0.0,0.0,0.0,0.0,0.0,0.0
1581113392095608902,213,1581113392095463991,,0.863939846077,-0.00306981478353,-0.499713435548,0.86617763759,0.0,0.0,0.0,0.0,0.0,0.0,0.0,0.0,0.0,-0.000315,-0.000752,0.001256,0.0,0.0,0.0,0.0,0.0,0.0,0.0,0.0,0.0,-0.101,0.029,-9.618,0.0,0.0,0.0,0.0,0.0,0.0,0.0,0.0,0.0
1581113392121157054,214,1581113392121052026,,0.863931044265,-0.00307298085101,-0.499721013946,0.866173203713,0.0,0.0,0.0,0.0,0.0,0.0,0.0,0.0,0.0,0.000591,-0.00018,-0.000249,0.0,0.0,0.0,0.0,0.0,0.0,0.0,0.0,0.0,-0.079,0.043,-9.576,0.0,0.0,0.0,0.0,0.0,0.0,0.0,0.0,0.0
1581113392146333815,215,1581113392146224975,,0.863913464522,-0.00308803440122,-0.499736116971,0.866164399421,0.0,0.0,0.0,0.0,0.0,0.0,0.0,0.0,0.0,0.00011,9e-05,-0.00192,0.0,0.0,0.0,0.0,0.0,0.0,0.0,0.0,0.0,-0.081,0.041,-9.633,0.0,0.0,0.0,0.0,0.0,0.0,0.0,0.0,0.0
1581113392171404683,216,1581113392171299934,,0.863895871326,-0.00308354480967,-0.499766378436,0.866146922702,0.0,0.0,0.0,0.0,0.0,0.0,0.0,0.0,0.0,-0.00136,-6.6e-05,-0.000667,0.0,0.0,0.0,0.0,0.0,0.0,0.0,0.0,0.0,-0.071,0.032,-9.564,0.0,0.0,0.0,0.0,0.0,0.0,0.0,0.0,0.0
1581113392196890138,217,1581113392196755886,,0.863900266623,-0.00307598618684,-0.499766385627,0.866146963964,0.0,0.0,0.0,0.0,0.0,0.0,0.0,0.0,0.0,-0.000216,0.001423,0.000464,0.0,0.0,0.0,0.0,0.0,0.0,0.0,0.0,0.0,-0.096,0.049,-9.581,0.0,0.0,0.0,0.0,0.0,0.0,0.0,0.0,0.0
1581113392221524251,218,1581113392221314907,,0.863913439653,-0.00307931236012,-0.499736170791,0.866164335136,0.0,0.0,0.0,0.0,0.0,0.0,0.0,0.0,0.0,-0.00037,0.0015,0.001362,0.0,0.0,0.0,0.0,0.0,0.0,0.0,0.0,0.0,-0.069,0.019,-9.599,0.0,0.0,0.0,0.0,0.0,0.0,0.0,0.0,0.0
1581113392246541842,219,1581113392246308088,,0.863926649428,-0.00308053970234,-0.499721006729,0.866173162554,0.0,0.0,0.0,0.0,0.0,0.0,0.0,0.0,0.0,0.00068,-0.000155,-0.000239,0.0,0.0,0.0,0.0,0.0,0.0,0.0,0.0,0.0,-0.084,0.034,-9.585,0.0,0.0,0.0,0.0,0.0,0.0,0.0,0.0,0.0
1581113392271283499,220,1581113392271177053,,0.863926661764,-0.00308490059068,-0.499720979827,0.866173194559,0.0,0.0,0.0,0.0,0.0,0.0,0.0,0.0,0.0,-0.000132,-0.001078,0.000261,0.0,0.0,0.0,0.0,0.0,0.0,0.0,0.0,0.0,-0.073,0.016,-9.611,0.0,0.0,0.0,0.0,0.0,0.0,0.0,0.0,0.0
1581113392296690610,221,1581113392296581029,,0.863935451372,-0.00308496453393,-0.499705862177,0.866181916203,0.0,0.0,0.0,0.0,0.0,0.0,0.0,0.0,0.0,-0.000406,-0.000941,0.000266,0.0,0.0,0.0,0.0,0.0,0.0,0.0,0.0,0.0,-0.086,0.025,-9.603,0.0,0.0,0.0,0.0,0.0,0.0,0.0,0.0,0.0
1581113392321621932,222,1581113392321515083,,0.863926661764,-0.00308490059068,-0.499720979827,0.866173194559,0.0,0.0,0.0,0.0,0.0,0.0,0.0,0.0,0.0,-0.000825,0.000698,-0.000486,0.0,0.0,0.0,0.0,0.0,0.0,0.0,0.0,0.0,-0.069,0.056,-9.585,0.0,0.0,0.0,0.0,0.0,0.0,0.0,0.0,0.0
1581113392346651156,223,1581113392346520900,,0.863909069422,-0.00308800232476,-0.499743675662,0.866160038367,0.0,0.0,0.0,0.0,0.0,0.0,0.0,0.0,0.0,0.000976,-0.000603,-0.001793,0.0,0.0,0.0,0.0,0.0,0.0,0.0,0.0,0.0,-0.091,0.031,-9.581,0.0,0.0,0.0,0.0,0.0,0.0,0.0,0.0,0.0
1581113392371545717,224,1581113392371318101,,0.863895883727,-0.00309549683171,-0.499758785636,0.866151274773,0.0,0.0,0.0,0.0,0.0,0.0,0.0,0.0,0.0,3.7e-05,-0.000257,-0.000315,0.0,0.0,0.0,0.0,0.0,0.0,0.0,0.0,0.0,-0.099,0.047,-9.587,0.0,0.0,0.0,0.0,0.0,0.0,0.0,0.0,0.0
1581113392396780540,225,1581113392396668910,,0.863900266623,-0.00309116779441,-0.499751254016,0.86615560381,0.0,0.0,0.0,0.0,0.0,0.0,0.0,0.0,0.0,0.001635,-0.000347,0.000827,0.0,0.0,0.0,0.0,0.0,0.0,0.0,0.0,0.0,-0.1,0.027,-9.606,0.0,0.0,0.0,0.0,0.0,0.0,0.0,0.0,0.0
1581113392421460793,226,1581113392421324014,,0.863891488364,-0.00308787401654,-0.499773910047,0.866142593495,0.0,0.0,0.0,0.0,0.0,0.0,0.0,0.0,0.0,0.000916,-0.000237,-0.000829,0.0,0.0,0.0,0.0,0.0,0.0,0.0,0.0,0.0,-0.075,0.021,-9.581,0.0,0.0,0.0,0.0,0.0,0.0,0.0,0.0,0.0
1581113392454994008,227,1581113392454314947,,0.86388710527,-0.00309220335487,-0.499781441582,0.866138264156,0.0,0.0,0.0,0.0,0.0,0.0,0.0,0.0,0.0,-0.001333,-0.00083,0.000128,0.0,0.0,0.0,0.0,0.0,0.0,0.0,0.0,0.0,-0.086,0.031,-9.586,0.0,0.0,0.0,0.0,0.0,0.0,0.0,0.0,0.0
1581113392472704713,228,1581113392472541093,,0.863904686592,-0.00309233140018,-0.499751207349,0.866155709292,0.0,0.0,0.0,0.0,0.0,0.0,0.0,0.0,0.0,-8.6e-05,0.001529,0.000673,0.0,0.0,0.0,0.0,0.0,0.0,0.0,0.0,0.0,-0.103,0.042,-9.609,0.0,0.0,0.0,0.0,0.0,0.0,0.0,0.0,0.0
1581113392496324813,229,1581113392496170997,,0.863895896063,-0.00309985804973,-0.499758758604,0.866151306855,0.0,0.0,0.0,0.0,0.0,0.0,0.0,0.0,0.0,-0.000377,7e-05,4.2e-05,0.0,0.0,0.0,0.0,0.0,0.0,0.0,0.0,0.0,-0.071,0.046,-9.599,0.0,0.0,0.0,0.0,0.0,0.0,0.0,0.0,0.0
1581113392521471425,230,1581113392521337032,,0.863882709775,-0.00309976190121,-0.499781434221,0.866138222904,0.0,0.0,0.0,0.0,0.0,0.0,0.0,0.0,0.0,0.000262,-0.000877,0.000213,0.0,0.0,0.0,0.0,0.0,0.0,0.0,0.0,0.0,-0.066,0.038,-9.587,0.0,0.0,0.0,0.0,0.0,0.0,0.0,0.0,0.0
1581113392546807952,231,1581113392546688079,,0.863882709775,-0.00309217134295,-0.499789000046,0.866133902707,0.0,0.0,0.0,0.0,0.0,0.0,0.0,0.0,0.0,0.00074,-0.000791,0.001454,0.0,0.0,0.0,0.0,0.0,0.0,0.0,0.0,0.0,-0.084,0.038,-9.603,0.0,0.0,0.0,0.0,0.0,0.0,0.0,0.0,0.0
1581113392572356706,232,1581113392572227001,,0.863878314215,-0.00309972985124,-0.499788992684,0.866133861456,0.0,0.0,0.0,0.0,0.0,0.0,0.0,0.0,0.0,-0.000487,-2.3e-05,0.000104,0.0,0.0,0.0,0.0,0.0,0.0,0.0,0.0,0.0,-0.07,0.027,-9.598,0.0,0.0,0.0,0.0,0.0,0.0,0.0,0.0,0.0
1581113392596660425,233,1581113392596546888,,0.86387830188,-0.00309536836937,-0.499789019715,0.866133829372,0.0,0.0,0.0,0.0,0.0,0.0,0.0,0.0,0.0,-0.000637,-0.001115,-0.000171,0.0,0.0,0.0,0.0,0.0,0.0,0.0,0.0,0.0,-0.077,0.027,-9.583,0.0,0.0,0.0,0.0,0.0,0.0,0.0,0.0,0.0
1581113392621378406,234,1581113392621221065,,0.86388710527,-0.00309979395095,-0.49977387572,0.866142584287,0.0,0.0,0.0,0.0,0.0,0.0,0.0,0.0,0.0,0.00047,2.9e-05,-0.001011,0.0,0.0,0.0,0.0,0.0,0.0,0.0,0.0,0.0,-0.107,0.033,-9.602,0.0,0.0,0.0,0.0,0.0,0.0,0.0,0.0,0.0
1581113392646377969,235,1581113392646265029,,0.863887092935,-0.00310302333877,-0.49976633688,0.866146872165,0.0,0.0,0.0,0.0,0.0,0.0,0.0,0.0,0.0,0.000108,0.000901,-7.8e-05,0.0,0.0,0.0,0.0,0.0,0.0,0.0,0.0,0.0,-0.079,0.042,-9.599,0.0,0.0,0.0,0.0,0.0,0.0,0.0,0.0,0.0
1581113392671948369,236,1581113392671829938,,0.86388710527,-0.00310738462269,-0.499766309782,0.866146904286,0.0,0.0,0.0,0.0,0.0,0.0,0.0,0.0,0.0,-0.000514,-0.001045,-0.000579,0.0,0.0,0.0,0.0,0.0,0.0,0.0,0.0,0.0,-0.076,0.035,-9.577,0.0,0.0,0.0,0.0,0.0,0.0,0.0,0.0,0.0
1581113392696634978,237,1581113392696484088,,0.863891488364,-0.00311064634328,-0.499751212319,0.866155553179,0.0,0.0,0.0,0.0,0.0,0.0,0.0,0.0,0.0,0.000203,-0.000685,0.000864,0.0,0.0,0.0,0.0,0.0,0.0,0.0,0.0,0.0,-0.069,0.064,-9.585,0.0,0.0,0.0,0.0,0.0,0.0,0.0,0.0,0.0
1581113392721682788,238,1581113392721543073,,0.863900279025,-0.00310311979793,-0.499743661037,0.866159955721,0.0,0.0,0.0,0.0,0.0,0.0,0.0,0.0,0.0,0.000222,0.000421,-0.00016,0.0,0.0,0.0,0.0,0.0,0.0,0.0,0.0,0.0,-0.073,0.03,-9.596,0.0,0.0,0.0,0.0,0.0,0.0,0.0,0.0,0.0
1581113392746528294,239,1581113392746318101,,0.863895896063,-0.0031074487971,-0.499751192591,0.866155626722,0.0,0.0,0.0,0.0,0.0,0.0,0.0,0.0,0.0,-0.00016,-0.000297,-0.002212,0.0,0.0,0.0,0.0,0.0,0.0,0.0,0.0,0.0,-0.101,0.013,-9.612,0.0,0.0,0.0,0.0,0.0,0.0,0.0,0.0,0.0
1581113392771389417,240,1581113392771274089,,0.86388269744,-0.00311058196083,-0.499766329509,0.866146830743,0.0,0.0,0.0,0.0,0.0,0.0,0.0,0.0,0.0,0.001018,-0.000767,-0.000412,0.0,0.0,0.0,0.0,0.0,0.0,0.0,0.0,0.0,-0.083,0.043,-9.589,0.0,0.0,0.0,0.0,0.0,0.0,0.0,0.0,0.0
1581113392796935103,241,1581113392796765089,,0.86388269744,-0.00312576373892,-0.499751197464,0.866155470137,0.0,0.0,0.0,0.0,0.0,0.0,0.0,0.0,0.0,0.000524,-0.000894,4.2e-05,0.0,0.0,0.0,0.0,0.0,0.0,0.0,0.0,0.0,-0.075,0.05,-9.571,0.0,0.0,0.0,0.0,0.0,0.0,0.0,0.0,0.0
1581113392821783490,242,1581113392821669101,,0.863887080534,-0.00311384388912,-0.499751232103,0.866155479429,0.0,0.0,0.0,0.0,0.0,0.0,0.0,0.0,0.0,-0.001031,0.000527,-0.001276,0.0,0.0,0.0,0.0,0.0,0.0,0.0,0.0,0.0,-0.091,0.026,-9.606,0.0,0.0,0.0,0.0,0.0,0.0,0.0,0.0,0.0
1581113392846679120,243,1581113392846564054,,0.863895858859,-0.00311713863062,-0.499728575876,0.866168488631,0.0,0.0,0.0,0.0,0.0,0.0,0.0,0.0,0.0,0.000588,0.000922,0.001141,0.0,0.0,0.0,0.0,0.0,0.0,0.0,0.0,0.0,-0.08,0.026,-9.589,0.0,0.0,0.0,0.0,0.0,0.0,0.0,0.0,0.0
1581113392871401319,244,1581113392871282100,,0.863909044553,-0.0031172358245,-0.499705899467,0.866181571198,0.0,0.0,0.0,0.0,0.0,0.0,0.0,0.0,0.0,0.000138,0.000392,0.001048,0.0,0.0,0.0,0.0,0.0,0.0,0.0,0.0,0.0,-0.089,0.029,-9.577,0.0,0.0,0.0,0.0,0.0,0.0,0.0,0.0,0.0
1581113392896406736,245,1581113392896236896,,0.863904661855,-0.00312156424924,-0.499713431086,0.866177242773,0.0,0.0,0.0,0.0,0.0,0.0,0.0,0.0,0.0,0.000803,0.000795,0.00017,0.0,0.0,0.0,0.0,0.0,0.0,0.0,0.0,0.0,-0.096,0.012,-9.582,0.0,0.0,0.0,0.0,0.0,0.0,0.0,0.0,0.0
1581113392922647025,246,1581113392922455072,,0.863909069422,-0.0031411398717,-0.499690712186,0.866190273934,0.0,0.0,0.0,0.0,0.0,0.0,0.0,0.0,0.0,-0.000742,-0.000428,-0.000465,0.0,0.0,0.0,0.0,0.0,0.0,0.0,0.0,0.0,-0.103,0.054,-9.61,0.0,0.0,0.0,0.0,0.0,0.0,0.0,0.0,0.0
1581113392946894575,247,1581113392946768045,,0.863895883727,-0.00314863411393,-0.499705822424,0.866181510802,0.0,0.0,0.0,0.0,0.0,0.0,0.0,0.0,0.0,0.000135,-0.001786,-0.000388,0.0,0.0,0.0,0.0,0.0,0.0,0.0,0.0,0.0,-0.058,0.057,-9.588,0.0,0.0,0.0,0.0,0.0,0.0,0.0,0.0,0.0
1581113392971909566,248,1581113392971744060,,0.863913476858,-0.00313794149407,-0.499690692341,0.866190347891,0.0,0.0,0.0,0.0,0.0,0.0,0.0,0.0,0.0,0.001251,-0.000455,0.00026,0.0,0.0,0.0,0.0,0.0,0.0,0.0,0.0,0.0,-0.086,0.009,-9.613,0.0,0.0,0.0,0.0,0.0,0.0,0.0,0.0,0.0
1581113392996733673,249,1581113392996609926,,0.863917884163,-0.00314992553767,-0.499675539337,0.8661990596,0.0,0.0,0.0,0.0,0.0,0.0,0.0,0.0,0.0,-0.000503,0.001661,-0.001745,0.0,0.0,0.0,0.0,0.0,0.0,0.0,0.0,0.0,-0.095,0.039,-9.569,0.0,0.0,0.0,0.0,0.0,0.0,0.0,0.0,0.0
1581113393021348030,250,1581113393021189928,,0.863922279131,-0.00314995774644,-0.499667980305,0.866203420059,0.0,0.0,0.0,0.0,0.0,0.0,0.0,0.0,0.0,0.000296,0.000125,0.000966,0.0,0.0,0.0,0.0,0.0,0.0,0.0,0.0,0.0,-0.051,0.036,-9.605,0.0,0.0,0.0,0.0,0.0,0.0,0.0,0.0,0.0
1581113393046809894,251,1581113393046689987,,0.863939846077,-0.0031381349135,-0.499645338035,0.866216510447,0.0,0.0,0.0,0.0,0.0,0.0,0.0,0.0,0.0,-0.001238,-0.000525,0.000237,0.0,0.0,0.0,0.0,0.0,0.0,0.0,0.0,0.0,-0.081,0.034,-9.57,0.0,0.0,0.0,0.0,0.0,0.0,0.0,0.0,0.0
1581113393072084913,252,1581113393071937084,,0.863953017463,-0.00313387158965,-0.499622687736,0.866229558567,0.0,0.0,0.0,0.0,0.0,0.0,0.0,0.0,0.0,0.000615,-0.000287,-0.000534,0.0,0.0,0.0,0.0,0.0,0.0,0.0,0.0,0.0,-0.074,0.037,-9.553,0.0,0.0,0.0,0.0,0.0,0.0,0.0,0.0,0.0
1581113393097022052,253,1581113393096901893,,0.863966212928,-0.00313832832433,-0.49959998236,0.866242670628,0.0,0.0,0.0,0.0,0.0,0.0,0.0,0.0,0.0,0.000187,-0.001294,0.000697,0.0,0.0,0.0,0.0,0.0,0.0,0.0,0.0,0.0,-0.066,0.036,-9.583,0.0,0.0,0.0,0.0,0.0,0.0,0.0,0.0,0.0
1581113393121639359,254,1581113393121504068,,0.863966212928,-0.00314592005486,-0.499592415367,0.866246988778,0.0,0.0,0.0,0.0,0.0,0.0,0.0,0.0,0.0,0.000626,0.000416,0.000997,0.0,0.0,0.0,0.0,0.0,0.0,0.0,0.0,0.0,-0.086,0.04,-9.617,0.0,0.0,0.0,0.0,0.0,0.0,0.0,0.0,0.0
1581113393146491127,255,1581113393146333932,,0.863957424241,-0.00314585550993,-0.499607534153,0.866238269114,0.0,0.0,0.0,0.0,0.0,0.0,0.0,0.0,0.0,-0.000184,-0.000435,-0.001258,0.0,0.0,0.0,0.0,0.0,0.0,0.0,0.0,0.0,-0.093,0.042,-9.596,0.0,0.0,0.0,0.0,0.0,0.0,0.0,0.0,0.0
1581113393171506230,256,1581113393171344041,,0.863944252987,-0.00315011878673,-0.499630184575,0.866225221363,0.0,0.0,0.0,0.0,0.0,0.0,0.0,0.0,0.0,0.000323,0.000193,0.000664,0.0,0.0,0.0,0.0,0.0,0.0,0.0,0.0,0.0,-0.08,0.043,-9.605,0.0,0.0,0.0,0.0,0.0,0.0,0.0,0.0,0.0
1581113393196923710,257,1581113393196805000,,0.863931044265,-0.00314130157524,-0.49965291703,0.86621207623,0.0,0.0,0.0,0.0,0.0,0.0,0.0,0.0,0.0,-0.001205,0.000477,-0.000264,0.0,0.0,0.0,0.0,0.0,0.0,0.0,0.0,0.0,-0.092,0.024,-9.578,0.0,0.0,0.0,0.0,0.0,0.0,0.0,0.0,0.0
1581113393221917306,258,1581113393221746921,,0.863935451372,-0.0031456941434,-0.499645330452,0.866216468798,0.0,0.0,0.0,0.0,0.0,0.0,0.0,0.0,0.0,-0.001115,0.000287,0.000604,0.0,0.0,0.0,0.0,0.0,0.0,0.0,0.0,0.0,-0.097,0.05,-9.593,0.0,0.0,0.0,0.0,0.0,0.0,0.0,0.0,0.0
1581113393246522838,259,1581113393246368885,,0.863935451372,-0.00313810267753,-0.499652897181,0.866212150186,0.0,0.0,0.0,0.0,0.0,0.0,0.0,0.0,0.0,-0.000885,-0.000237,-0.000138,0.0,0.0,0.0,0.0,0.0,0.0,0.0,0.0,0.0,-0.074,0.029,-9.569,0.0,0.0,0.0,0.0,0.0,0.0,0.0,0.0,0.0
1581113393271537059,260,1581113393271373987,,0.863931044265,-0.00314130157524,-0.49965291703,0.86621207623,0.0,0.0,0.0,0.0,0.0,0.0,0.0,0.0,0.0,-5.9e-05,-0.000855,-0.000723,0.0,0.0,0.0,0.0,0.0,0.0,0.0,0.0,0.0,-0.07,0.029,-9.569,0.0,0.0,0.0,0.0,0.0,0.0,0.0,0.0,0.0
1581113393296544218,261,1581113393296386957,,0.863931056601,-0.00314566186938,-0.499652889598,0.866212108537,0.0,0.0,0.0,0.0,0.0,0.0,0.0,0.0,0.0,-0.000919,-0.000501,-0.000363,0.0,0.0,0.0,0.0,0.0,0.0,0.0,0.0,0.0,-0.107,0.033,-9.592,0.0,0.0,0.0,0.0,0.0,0.0,0.0,0.0,0.0
1581113393321707778,262,1581113393321582078,,0.863926674034,-0.00314239863076,-0.499667987956,0.86620346167,0.0,0.0,0.0,0.0,0.0,0.0,0.0,0.0,0.0,-2.6e-05,0.000263,-0.000381,0.0,0.0,0.0,0.0,0.0,0.0,0.0,0.0,0.0,-0.075,0.032,-9.586,0.0,0.0,0.0,0.0,0.0,0.0,0.0,0.0,0.0
1581113393346804504,263,1581113393346637964,,0.863917884163,-0.00314233428907,-0.499683105982,0.866194740686,0.0,0.0,0.0,0.0,0.0,0.0,0.0,0.0,0.0,-0.001212,-0.001276,0.000353,0.0,0.0,0.0,0.0,0.0,0.0,0.0,0.0,0.0,-0.074,0.029,-9.578,0.0,0.0,0.0,0.0,0.0,0.0,0.0,0.0,0.0
1581113393371837407,264,1581113393371716976,,0.863913489128,-0.00314989332865,-0.499683098331,0.866194699075,0.0,0.0,0.0,0.0,0.0,0.0,0.0,0.0,0.0,0.000251,-0.001071,0.000597,0.0,0.0,0.0,0.0,0.0,0.0,0.0,0.0,0.0,-0.085,0.006,-9.591,0.0,0.0,0.0,0.0,0.0,0.0,0.0,0.0,0.0
1581113393396406089,265,1581113393396239042,,0.863913489128,-0.00314989332865,-0.499683098331,0.866194699075,0.0,0.0,0.0,0.0,0.0,0.0,0.0,0.0,0.0,-0.000651,0.000555,0.000776,0.0,0.0,0.0,0.0,0.0,0.0,0.0,0.0,0.0,-0.081,0.02,-9.613,0.0,0.0,0.0,0.0,0.0,0.0,0.0,0.0,0.0
1581113393421292436,266,1581113393421135902,,0.863922266861,-0.00314559732061,-0.499668007775,0.866203387817,0.0,0.0,0.0,0.0,0.0,0.0,0.0,0.0,0.0,-0.000223,-0.000159,-7.5e-05,0.0,0.0,0.0,0.0,0.0,0.0,0.0,0.0,0.0,-0.064,0.04,-9.606,0.0,0.0,0.0,0.0,0.0,0.0,0.0,0.0,0.0
1581113393446679752,267,1581113393446564912,,0.863922254525,-0.00313364547607,-0.499675601756,0.866199036737,0.0,0.0,0.0,0.0,0.0,0.0,0.0,0.0,0.0,-5.6e-05,0.000152,-0.000862,0.0,0.0,0.0,0.0,0.0,0.0,0.0,0.0,0.0,-0.101,0.037,-9.603,0.0,0.0,0.0,0.0,0.0,0.0,0.0,0.0,0.0
1581113393471878669,268,1581113393471749067,,0.863926649428,-0.00312608639806,-0.499675609237,0.866199078358,0.0,0.0,0.0,0.0,0.0,0.0,0.0,0.0,0.0,-7.1e-05,0.000322,-0.001422,0.0,0.0,0.0,0.0,0.0,0.0,0.0,0.0,0.0,-0.093,0.03,-9.585,0.0,0.0,0.0,0.0,0.0,0.0,0.0,0.0,0.0
1581113393496822433,269,1581113393496707916,,0.863904661855,-0.00312156424924,-0.499713431086,0.866177242773,0.0,0.0,0.0,0.0,0.0,0.0,0.0,0.0,0.0,0.000208,0.000313,-0.00092,0.0,0.0,0.0,0.0,0.0,0.0,0.0,0.0,0.0,-0.075,0.021,-9.578,0.0,0.0,0.0,0.0,0.0,0.0,0.0,0.0,0.0
1581113393521395130,270,1581113393521291971,,0.863904661855,-0.00311397306726,-0.499720997269,0.86617292351,0.0,0.0,0.0,0.0,0.0,0.0,0.0,0.0,0.0,0.00016,0.001163,-0.000779,0.0,0.0,0.0,0.0,0.0,0.0,0.0,0.0,0.0,-0.092,0.038,-9.611,0.0,0.0,0.0,0.0,0.0,0.0,0.0,0.0,0.0
1581113393547028734,271,1581113393546880006,,0.863900266623,-0.00311394077308,-0.499728556034,0.866168562589,0.0,0.0,0.0,0.0,0.0,0.0,0.0,0.0,0.0,1e-06,0.000567,-0.000502,0.0,0.0,0.0,0.0,0.0,0.0,0.0,0.0,0.0,-0.091,0.043,-9.629,0.0,0.0,0.0,0.0,0.0,0.0,0.0,0.0,0.0
1581113393574386789,272,1581113393574239969,,0.863895871326,-0.00311390847866,-0.499736114762,0.866164201602,0.0,0.0,0.0,0.0,0.0,0.0,0.0,0.0,0.0,-0.000117,-0.000396,-2.5e-05,0.0,0.0,0.0,0.0,0.0,0.0,0.0,0.0,0.0,-0.11,0.013,-9.589,0.0,0.0,0.0,0.0,0.0,0.0,0.0,0.0,0.0
1581113393597284071,273,1581113393597137928,,0.863917834688,-0.00310211797194,-0.499705914053,0.866181654393,0.0,0.0,0.0,0.0,0.0,0.0,0.0,0.0,0.0,-6e-06,0.000886,-1e-06,0.0,0.0,0.0,0.0,0.0,0.0,0.0,0.0,0.0,-0.077,0.038,-9.598,0.0,0.0,0.0,0.0,0.0,0.0,0.0,0.0,0.0
1581113393622816426,274,1581113393622684001,,0.863922217123,-0.00309778960242,-0.499698382226,0.866185982763,0.0,0.0,0.0,0.0,0.0,0.0,0.0,0.0,0.0,0.000181,-0.000637,0.000876,0.0,0.0,0.0,0.0,0.0,0.0,0.0,0.0,0.0,-0.093,0.013,-9.625,0.0,0.0,0.0,0.0,0.0,0.0,0.0,0.0,0.0
1581113393647089362,275,1581113393646950960,,0.863917822154,-0.00309016593886,-0.499713507118,0.866177302786,0.0,0.0,0.0,0.0,0.0,0.0,0.0,0.0,0.0,-0.000494,0.000185,-0.000321,0.0,0.0,0.0,0.0,0.0,0.0,0.0,0.0,0.0,-0.083,0.01,-9.597,0.0,0.0,0.0,0.0,0.0,0.0,0.0,0.0,0.0
1581113393671790698,276,1581113393671659946,,0.863931019395,-0.00310221493537,-0.499683237299,0.866194736367,0.0,0.0,0.0,0.0,0.0,0.0,0.0,0.0,0.0,-5.1e-05,0.000133,-0.000112,0.0,0.0,0.0,0.0,0.0,0.0,0.0,0.0,0.0,-0.077,0.024,-9.597,0.0,0.0,0.0,0.0,0.0,0.0,0.0,0.0,0.0
1581113393703659115,277,1581113393703181028,,0.863948610553,-0.00309911310262,-0.499660540411,0.866207891494,0.0,0.0,0.0,0.0,0.0,0.0,0.0,0.0,0.0,0.000432,0.000384,-0.00027,0.0,0.0,0.0,0.0,0.0,0.0,0.0,0.0,0.0,-0.076,0.032,-9.613,0.0,0.0,0.0,0.0,0.0,0.0,0.0,0.0,0.0
1581113393723084201,278,1581113393722914934,,0.863961781411,-0.00309484958674,-0.499637889997,0.866220940032,0.0,0.0,0.0,0.0,0.0,0.0,0.0,0.0,0.0,0.001069,-0.000292,0.000564,0.0,0.0,0.0,0.0,0.0,0.0,0.0,0.0,0.0,-0.074,0.025,-9.564,0.0,0.0,0.0,0.0,0.0,0.0,0.0,0.0,0.0
1581113393746559982,279,1581113393746371030,,0.863974964145,-0.00309494642965,-0.499615212215,0.866234020224,0.0,0.0,0.0,0.0,0.0,0.0,0.0,0.0,0.0,-4.8e-05,0.001183,-0.000166,0.0,0.0,0.0,0.0,0.0,0.0,0.0,0.0,0.0,-0.064,0.025,-9.568,0.0,0.0,0.0,0.0,0.0,0.0,0.0,0.0,0.0
1581113393772351006,280,1581113393772245883,,0.863952992592,-0.00309478502363,-0.499653008328,0.866212219573,0.0,0.0,0.0,0.0,0.0,0.0,0.0,0.0,0.0,-0.00011,-0.001796,-0.002388,0.0,0.0,0.0,0.0,0.0,0.0,0.0,0.0,0.0,-0.09,0.033,-9.599,0.0,0.0,0.0,0.0,0.0,0.0,0.0,0.0,0.0
1581113393810105372,281,1581113393809700012,,0.863944203511,-0.00309472045957,-0.499668126508,0.866203498851,0.0,0.0,0.0,0.0,0.0,0.0,0.0,0.0,0.0,-0.000379,0.001157,0.001314,0.0,0.0,0.0,0.0,0.0,0.0,0.0,0.0,0.0,-0.087,0.021,-9.612,0.0,0.0,0.0,0.0,0.0,0.0,0.0,0.0,0.0
1581113393823596463,282,1581113393823380947,,0.863948585551,-0.00309039238058,-0.499660594425,0.86620782693,0.0,0.0,0.0,0.0,0.0,0.0,0.0,0.0,0.0,0.000414,0.000138,-0.001102,0.0,0.0,0.0,0.0,0.0,0.0,0.0,0.0,0.0,-0.103,0.043,-9.59,0.0,0.0,0.0,0.0,0.0,0.0,0.0,0.0,0.0
1581113393846520179,283,1581113393846374034,,0.863948572952,-0.0030860320192,-0.499660621375,0.866207794549,0.0,0.0,0.0,0.0,0.0,0.0,0.0,0.0,0.0,0.000115,-0.000178,-0.000624,0.0,0.0,0.0,0.0,0.0,0.0,0.0,0.0,0.0,-0.072,0.036,-9.595,0.0,0.0,0.0,0.0,0.0,0.0,0.0,0.0,0.0
1581113393872614359,284,1581113393872498035,,0.863926612025,-0.00308263936145,-0.499705955408,0.866181705046,0.0,0.0,0.0,0.0,0.0,0.0,0.0,0.0,0.0,0.000566,-0.000282,-0.000106,0.0,0.0,0.0,0.0,0.0,0.0,0.0,0.0,0.0,-0.083,0.032,-9.575,0.0,0.0,0.0,0.0,0.0,0.0,0.0,0.0,0.0
1581113393896433863,285,1581113393896310091,,0.863922204524,-0.00307824622679,-0.499713541132,0.866177311912,0.0,0.0,0.0,0.0,0.0,0.0,0.0,0.0,0.0,-1.8e-05,0.000935,0.000451,0.0,0.0,0.0,0.0,0.0,0.0,0.0,0.0,0.0,-0.101,0.019,-9.607,0.0,0.0,0.0,0.0,0.0,0.0,0.0,0.0,0.0
1581113393922310229,286,1581113393922152042,,0.863930994263,-0.00307831098142,-0.49969842341,0.866186033426,0.0,0.0,0.0,0.0,0.0,0.0,0.0,0.0,0.0,-0.000286,-0.000148,0.000914,0.0,0.0,0.0,0.0,0.0,0.0,0.0,0.0,0.0,-0.089,0.023,-9.587,0.0,0.0,0.0,0.0,0.0,0.0,0.0,0.0,0.0
1581113393947046107,287,1581113393946928024,,0.863926599426,-0.00307068733762,-0.499713548161,0.866177353355,0.0,0.0,0.0,0.0,0.0,0.0,0.0,0.0,0.0,0.000472,8.8e-05,-0.000492,0.0,0.0,0.0,0.0,0.0,0.0,0.0,0.0,0.0,-0.066,0.028,-9.578,0.0,0.0,0.0,0.0,0.0,0.0,0.0,0.0,0.0
1581113393972981218,288,1581113393972852945,,0.863917809555,-0.00307062265816,-0.499728665731,0.866168631576,0.0,0.0,0.0,0.0,0.0,0.0,0.0,0.0,0.0,0.001609,-0.00011,0.000258,0.0,0.0,0.0,0.0,0.0,0.0,0.0,0.0,0.0,-0.109,0.023,-9.628,0.0,0.0,0.0,0.0,0.0,0.0,0.0,0.0,0.0
1581113393997054267,289,1581113393996905088,,0.863922191859,-0.00306629410856,-0.499721133742,0.866172960126,0.0,0.0,0.0,0.0,0.0,0.0,0.0,0.0,0.0,-0.000471,0.000153,0.000382,0.0,0.0,0.0,0.0,0.0,0.0,0.0,0.0,0.0,-0.086,0.022,-9.602,0.0,0.0,0.0,0.0,0.0,0.0,0.0,0.0,0.0
1581113394022488934,290,1581113394022326946,,0.863922191859,-0.00305870288939,-0.499728699434,0.866168640618,0.0,0.0,0.0,0.0,0.0,0.0,0.0,0.0,0.0,-0.00117,-0.000251,-0.000187,0.0,0.0,0.0,0.0,0.0,0.0,0.0,0.0,0.0,-0.085,0.039,-9.586,0.0,0.0,0.0,0.0,0.0,0.0,0.0,0.0,0.0
1581113394047643983,291,1581113394047447919,,0.863935389034,-0.00306316074954,-0.499705996308,0.866181755522,0.0,0.0,0.0,0.0,0.0,0.0,0.0,0.0,0.0,0.000709,0.00114,-0.000315,0.0,0.0,0.0,0.0,0.0,0.0,0.0,0.0,0.0,-0.077,0.003,-9.617,0.0,0.0,0.0,0.0,0.0,0.0,0.0,0.0,0.0
1581113394072511623,292,1581113394072350978,,0.863939783739,-0.00307078435505,-0.499690871519,0.866190435528,0.0,0.0,0.0,0.0,0.0,0.0,0.0,0.0,0.0,-0.000678,-0.000888,0.000787,0.0,0.0,0.0,0.0,0.0,0.0,0.0,0.0,0.0,-0.086,0.027,-9.589,0.0,0.0,0.0,0.0,0.0,0.0,0.0,0.0,0.0
1581113394097933786,293,1581113394097816944,,0.863935401633,-0.00308270398368,-0.499690837609,0.866190426429,0.0,0.0,0.0,0.0,0.0,0.0,0.0,0.0,0.0,-0.001435,-0.000798,-0.000774,0.0,0.0,0.0,0.0,0.0,0.0,0.0,0.0,0.0,-0.096,0.019,-9.597,0.0,0.0,0.0,0.0,0.0,0.0,0.0,0.0,0.0
1581113394122989501,294,1581113394122865915,,0.863957387035,-0.00307204310748,-0.499668147983,0.866203622953,0.0,0.0,0.0,0.0,0.0,0.0,0.0,0.0,0.0,-0.000888,-0.000265,0.000149,0.0,0.0,0.0,0.0,0.0,0.0,0.0,0.0,0.0,-0.075,0.04,-9.587,0.0,0.0,0.0,0.0,0.0,0.0,0.0,0.0,0.0
1581113394146875845,295,1581113394146728992,,0.863974951611,-0.00306781161462,-0.499637938258,0.866221031934,0.0,0.0,0.0,0.0,0.0,0.0,0.0,0.0,0.0,-0.00171,-0.000928,0.000706,0.0,0.0,0.0,0.0,0.0,0.0,0.0,0.0,0.0,-0.072,0.035,-9.59,0.0,0.0,0.0,0.0,0.0,0.0,0.0,0.0,0.0
1581113394172657122,296,1581113394172499895,,0.863966163187,-0.00306774714787,-0.499653056591,0.866212311475,0.0,0.0,0.0,0.0,0.0,0.0,0.0,0.0,0.0,-0.000799,0.000643,0.000113,0.0,0.0,0.0,0.0,0.0,0.0,0.0,0.0,0.0,-0.084,0.047,-9.563,0.0,0.0,0.0,0.0,0.0,0.0,0.0,0.0,0.0
1581113394196627428,297,1581113394196506023,,0.863961756277,-0.00306335455258,-0.499660642453,0.866207918879,0.0,0.0,0.0,0.0,0.0,0.0,0.0,0.0,0.0,-1.4e-05,0.000791,-0.001068,0.0,0.0,0.0,0.0,0.0,0.0,0.0,0.0,0.0,-0.096,0.031,-9.579,0.0,0.0,0.0,0.0,0.0,0.0,0.0,0.0,0.0
1581113394222673438,298,1581113394222549915,,0.863948572952,-0.00307844048787,-0.499668187509,0.866203475664,0.0,0.0,0.0,0.0,0.0,0.0,0.0,0.0,0.0,0.000336,-0.000171,-0.000379,0.0,0.0,0.0,0.0,0.0,0.0,0.0,0.0,0.0,-0.082,0.033,-9.587,0.0,0.0,0.0,0.0,0.0,0.0,0.0,0.0,0.0
1581113394255024389,299,1581113394254679918,,0.863952967459,-0.0030784728639,-0.499660628439,0.866207836059,0.0,0.0,0.0,0.0,0.0,0.0,0.0,0.0,0.0,0.000489,-0.000527,-0.000171,0.0,0.0,0.0,0.0,0.0,0.0,0.0,0.0,0.0,-0.08,0.048,-9.595,0.0,0.0,0.0,0.0,0.0,0.0,0.0,0.0,0.0
1581113394273170622,300,1581113394273030996,,0.863957361901,-0.00307850523969,-0.49965306933,0.866212196387,0.0,0.0,0.0,0.0,0.0,0.0,0.0,0.0,0.0,0.000384,6.9e-05,0.000207,0.0,0.0,0.0,0.0,0.0,0.0,0.0,0.0,0.0,-0.098,0.023,-9.613,0.0,0.0,0.0,0.0,0.0,0.0,0.0,0.0,0.0
1581113394298928619,301,1581113394298753976,,0.863970544832,-0.00307860236566,-0.499630391777,0.866225276977,0.0,0.0,0.0,0.0,0.0,0.0,0.0,0.0,0.0,0.000491,-0.000905,0.000487,0.0,0.0,0.0,0.0,0.0,0.0,0.0,0.0,0.0,-0.068,0.041,-9.614,0.0,0.0,0.0,0.0,0.0,0.0,0.0,0.0,0.0
1581113394322363182,302,1581113394322237014,,0.863957361901,-0.00308609684665,-0.49964550312,0.866216515141,0.0,0.0,0.0,0.0,0.0,0.0,0.0,0.0,0.0,-0.000546,-0.000201,0.000157,0.0,0.0,0.0,0.0,0.0,0.0,0.0,0.0,0.0,-0.089,0.036,-9.599,0.0,0.0,0.0,0.0,0.0,0.0,0.0,0.0,0.0
1581113394347778078,303,1581113394347630977,,0.863957361901,-0.00307850523969,-0.49965306933,0.866212196387,0.0,0.0,0.0,0.0,0.0,0.0,0.0,0.0,0.0,-0.000924,0.001281,-0.001769,0.0,0.0,0.0,0.0,0.0,0.0,0.0,0.0,0.0,-0.071,0.017,-9.604,0.0,0.0,0.0,0.0,0.0,0.0,0.0,0.0,0.0
1581113394372757826,304,1581113394372652053,,0.863948585551,-0.00309039238058,-0.499660594425,0.86620782693,0.0,0.0,0.0,0.0,0.0,0.0,0.0,0.0,0.0,-0.0,-0.000304,3.3e-05,0.0,0.0,0.0,0.0,0.0,0.0,0.0,0.0,0.0,-0.099,0.032,-9.595,0.0,0.0,0.0,0.0,0.0,0.0,0.0,0.0,0.0
1581113394397541562,305,1581113394397392034,,0.863922229656,-0.00309455904531,-0.49970592129,0.866181695892,0.0,0.0,0.0,0.0,0.0,0.0,0.0,0.0,0.0,-0.000278,-0.000635,-9.1e-05,0.0,0.0,0.0,0.0,0.0,0.0,0.0,0.0,0.0,-0.081,0.014,-9.596,0.0,0.0,0.0,0.0,0.0,0.0,0.0,0.0,0.0
1581113394433219832,306,1581113394432876110,,0.863931031863,-0.00309898423649,-0.499690776466,0.866190449524,0.0,0.0,0.0,0.0,0.0,0.0,0.0,0.0,0.0,0.001103,-0.000145,0.000957,0.0,0.0,0.0,0.0,0.0,0.0,0.0,0.0,0.0,-0.089,0.048,-9.576,0.0,0.0,0.0,0.0,0.0,0.0,0.0,0.0,0.0
1581113394448255261,307,1581113394448123931,,0.863944215979,-0.00309908088644,-0.499668099482,0.866203531101,0.0,0.0,0.0,0.0,0.0,0.0,0.0,0.0,0.0,0.000396,4.8e-05,0.000861,0.0,0.0,0.0,0.0,0.0,0.0,0.0,0.0,0.0,-0.092,0.036,-9.618,0.0,0.0,0.0,0.0,0.0,0.0,0.0,0.0,0.0
1581113394472743010,308,1581113394472631931,,0.863966188189,-0.00309165048048,-0.499637870231,0.866221013675,0.0,0.0,0.0,0.0,0.0,0.0,0.0,0.0,0.0,-0.000331,0.000209,-0.000531,0.0,0.0,0.0,0.0,0.0,0.0,0.0,0.0,0.0,-0.07,0.027,-9.568,0.0,0.0,0.0,0.0,0.0,0.0,0.0,0.0,0.0
1581113394497941164,309,1581113394497801065,,0.863970582434,-0.00309927417999,-0.499622744486,0.866229692474,0.0,0.0,0.0,0.0,0.0,0.0,0.0,0.0,0.0,0.000259,9.7e-05,-0.000371,0.0,0.0,0.0,0.0,0.0,0.0,0.0,0.0,0.0,-0.078,0.036,-9.613,0.0,0.0,0.0,0.0,0.0,0.0,0.0,0.0,0.0
1581113394522358488,310,1581113394522253990,,0.863961781411,-0.00309484958674,-0.499637889997,0.866220940032,0.0,0.0,0.0,0.0,0.0,0.0,0.0,0.0,0.0,-0.000557,-0.000736,-0.000735,0.0,0.0,0.0,0.0,0.0,0.0,0.0,0.0,0.0,-0.086,0.017,-9.607,0.0,0.0,0.0,0.0,0.0,0.0,0.0,0.0,0.0
1581113394547314308,311,1581113394547163963,,0.863979358258,-0.00309497871014,-0.499607652878,0.866238380156,0.0,0.0,0.0,0.0,0.0,0.0,0.0,0.0,0.0,-0.001211,-0.000827,0.000521,0.0,0.0,0.0,0.0,0.0,0.0,0.0,0.0,0.0,-0.087,0.032,-9.604,0.0,0.0,0.0,0.0,0.0,0.0,0.0,0.0,0.0
1581113394574284877,312,1581113394574063062,,0.863970582434,-0.00310686577793,-0.499615177889,0.86623401101,0.0,0.0,0.0,0.0,0.0,0.0,0.0,0.0,0.0,0.000681,-0.000963,-0.000469,0.0,0.0,0.0,0.0,0.0,0.0,0.0,0.0,0.0,-0.074,0.045,-9.62,0.0,0.0,0.0,0.0,0.0,0.0,0.0,0.0,0.0
1581113394606412873,313,1581113394606077909,,0.863983752305,-0.0030950109904,-0.499600093503,0.866242740023,0.0,0.0,0.0,0.0,0.0,0.0,0.0,0.0,0.0,-0.000126,-0.000312,0.000735,0.0,0.0,0.0,0.0,0.0,0.0,0.0,0.0,0.0,-0.066,0.039,-9.598,0.0,0.0,0.0,0.0,0.0,0.0,0.0,0.0,0.0
1581113394623193369,314,1581113394623054027,,0.863988146287,-0.00308745153084,-0.499600100696,0.866242781456,0.0,0.0,0.0,0.0,0.0,0.0,0.0,0.0,0.0,-0.000233,0.000506,1.9e-05,0.0,0.0,0.0,0.0,0.0,0.0,0.0,0.0,0.0,-0.084,0.043,-9.588,0.0,0.0,0.0,0.0,0.0,0.0,0.0,0.0,0.0
1581113394647363080,315,1581113394647233963,,0.864001315302,-0.00309078053956,-0.499569882614,0.866260146516,0.0,0.0,0.0,0.0,0.0,0.0,0.0,0.0,0.0,-0.000589,0.000785,-0.000335,0.0,0.0,0.0,0.0,0.0,0.0,0.0,0.0,0.0,-0.099,0.036,-9.589,0.0,0.0,0.0,0.0,0.0,0.0,0.0,0.0,0.0
1581113394681854435,316,1581113394681493997,,0.863992515068,-0.00308635614705,-0.499585028582,0.866251394866,0.0,0.0,0.0,0.0,0.0,0.0,0.0,0.0,0.0,0.000169,-0.000665,-0.00116,0.0,0.0,0.0,0.0,0.0,0.0,0.0,0.0,0.0,-0.068,0.055,-9.594,0.0,0.0,0.0,0.0,0.0,0.0,0.0,0.0,0.0
1581113394698382469,317,1581113394698220968,,0.863988108486,-0.00308196396741,-0.499592614947,0.866247002686,0.0,0.0,0.0,0.0,0.0,0.0,0.0,0.0,0.0,-0.00146,-0.00135,-0.000427,0.0,0.0,0.0,0.0,0.0,0.0,0.0,0.0,0.0,-0.079,0.048,-9.599,0.0,0.0,0.0,0.0,0.0,0.0,0.0,0.0,0.0
1581113394722309232,318,1581113394722198963,,0.86399248967,-0.00308522886008,-0.499577515919,0.866255647928,0.0,0.0,0.0,0.0,0.0,0.0,0.0,0.0,0.0,-3e-06,0.000498,0.000843,0.0,0.0,0.0,0.0,0.0,0.0,0.0,0.0,0.0,-0.067,0.022,-9.589,0.0,0.0,0.0,0.0,0.0,0.0,0.0,0.0,0.0
1581113394747748144,319,1581113394747606992,,0.864005671022,-0.00308532660309,-0.499554837228,0.86626872654,0.0,0.0,0.0,0.0,0.0,0.0,0.0,0.0,0.0,0.001169,0.000122,-0.000899,0.0,0.0,0.0,0.0,0.0,0.0,0.0,0.0,0.0,-0.113,0.025,-9.605,0.0,0.0,0.0,0.0,0.0,0.0,0.0,0.0,0.0
1581113394772577810,320,1581113394772435903,,0.864010064674,-0.00308535918362,-0.499547277588,0.866273085946,0.0,0.0,0.0,0.0,0.0,0.0,0.0,0.0,0.0,-0.000121,-0.000626,-0.000214,0.0,0.0,0.0,0.0,0.0,0.0,0.0,0.0,0.0,-0.077,0.034,-9.587,0.0,0.0,0.0,0.0,0.0,0.0,0.0,0.0,0.0
1581113394797346697,321,1581113394797177076,,0.864010051876,-0.00308859222114,-0.49953973788,0.866277370915,0.0,0.0,0.0,0.0,0.0,0.0,0.0,0.0,0.0,-0.00056,0.000288,0.000599,0.0,0.0,0.0,0.0,0.0,0.0,0.0,0.0,0.0,-0.082,0.022,-9.597,0.0,0.0,0.0,0.0,0.0,0.0,0.0,0.0,0.0
1581113394822354354,322,1581113394822247028,,0.864014445463,-0.00309621742866,-0.499524611438,0.866286047574,0.0,0.0,0.0,0.0,0.0,0.0,0.0,0.0,0.0,-0.000136,-0.000323,-0.000678,0.0,0.0,0.0,0.0,0.0,0.0,0.0,0.0,0.0,-0.078,0.039,-9.591,0.0,0.0,0.0,0.0,0.0,0.0,0.0,0.0,0.0
1581113394847502382,323,1581113394847353935,,0.864018838983,-0.00308865758906,-0.499524618412,0.866286089397,0.0,0.0,0.0,0.0,0.0,0.0,0.0,0.0,0.0,-0.000162,0.000581,0.001095,0.0,0.0,0.0,0.0,0.0,0.0,0.0,0.0,0.0,-0.064,0.031,-9.596,0.0,0.0,0.0,0.0,0.0,0.0,0.0,0.0,0.0
1581113394872908611,324,1581113394872796058,,0.864036412407,-0.00308119568522,-0.499501945858,0.86629920838,0.0,0.0,0.0,0.0,0.0,0.0,0.0,0.0,0.0,-0.000524,-0.000603,0.000606,0.0,0.0,0.0,0.0,0.0,0.0,0.0,0.0,0.0,-0.089,0.029,-9.634,0.0,0.0,0.0,0.0,0.0,0.0,0.0,0.0,0.0
1581113394897890487,325,1581113394897735118,,0.864040818397,-0.00308558724078,-0.499494359045,0.866303599936,0.0,0.0,0.0,0.0,0.0,0.0,0.0,0.0,0.0,-0.000501,-0.00084,-0.00034,0.0,0.0,0.0,0.0,0.0,0.0,0.0,0.0,0.0,-0.085,0.034,-9.6,0.0,0.0,0.0,0.0,0.0,0.0,0.0,0.0,0.0
1581113394922548236,326,1581113394922354936,,0.86403201915,-0.00308116304012,-0.499509505726,0.866294849371,0.0,0.0,0.0,0.0,0.0,0.0,0.0,0.0,0.0,-0.000925,0.000263,-0.000733,0.0,0.0,0.0,0.0,0.0,0.0,0.0,0.0,0.0,-0.069,0.035,-9.597,0.0,0.0,0.0,0.0,0.0,0.0,0.0,0.0,0.0
1581113394947303277,327,1581113394947195053,,0.864036412407,-0.00308119568522,-0.499501945858,0.86629920838,0.0,0.0,0.0,0.0,0.0,0.0,0.0,0.0,0.0,0.000868,1e-06,0.000249,0.0,0.0,0.0,0.0,0.0,0.0,0.0,0.0,0.0,-0.099,0.02,-9.607,0.0,0.0,0.0,0.0,0.0,0.0,0.0,0.0,0.0
1581113394972551763,328,1581113394972405910,,0.864036412407,-0.00308119568522,-0.499501945858,0.86629920838,0.0,0.0,0.0,0.0,0.0,0.0,0.0,0.0,0.0,0.000975,0.00055,-0.000384,0.0,0.0,0.0,0.0,0.0,0.0,0.0,0.0,0.0,-0.11,0.042,-9.599,0.0,0.0,0.0,0.0,0.0,0.0,0.0,0.0,0.0
1581113394998013324,329,1581113394997878074,,0.864027625827,-0.00308872295603,-0.499509498791,0.866294807614,0.0,0.0,0.0,0.0,0.0,0.0,0.0,0.0,0.0,-0.000232,0.00063,0.000414,0.0,0.0,0.0,0.0,0.0,0.0,0.0,0.0,0.0,-0.096,0.04,-9.622,0.0,0.0,0.0,0.0,0.0,0.0,0.0,0.0,0.0
1581113395022695767,330,1581113395022547006,,0.864027625827,-0.00308872295603,-0.499509498791,0.866294807614,0.0,0.0,0.0,0.0,0.0,0.0,0.0,0.0,0.0,-0.000735,0.000931,-0.000435,0.0,0.0,0.0,0.0,0.0,0.0,0.0,0.0,0.0,-0.101,0.02,-9.575,0.0,0.0,0.0,0.0,0.0,0.0,0.0,0.0,0.0
1581113395047657596,331,1581113395047511100,,0.864036399544,-0.0030844294112,-0.499494405954,0.866303492852,0.0,0.0,0.0,0.0,0.0,0.0,0.0,0.0,0.0,0.001052,-0.000414,5.2e-05,0.0,0.0,0.0,0.0,0.0,0.0,0.0,0.0,0.0,-0.091,0.025,-9.603,0.0,0.0,0.0,0.0,0.0,0.0,0.0,0.0,0.0
1581113395072522074,332,1581113395072308063,,0.864032031948,-0.0031007072244,-0.499494345006,0.866303516433,0.0,0.0,0.0,0.0,0.0,0.0,0.0,0.0,0.0,-3.8e-05,0.001534,-0.001023,0.0,0.0,0.0,0.0,0.0,0.0,0.0,0.0,0.0,-0.097,0.041,-9.582,0.0,0.0,0.0,0.0,0.0,0.0,0.0,0.0,0.0
1581113395097693490,333,1581113395097582101,,0.86403201915,-0.00308875563917,-0.499501938924,0.866299166624,0.0,0.0,0.0,0.0,0.0,0.0,0.0,0.0,0.0,0.000472,0.001048,0.000972,0.0,0.0,0.0,0.0,0.0,0.0,0.0,0.0,0.0,-0.073,0.026,-9.564,0.0,0.0,0.0,0.0,0.0,0.0,0.0,0.0,0.0
1581113395122733447,334,1581113395122611045,,0.864023219574,-0.00308433116387,-0.499517085555,0.866290415822,0.0,0.0,0.0,0.0,0.0,0.0,0.0,0.0,0.0,-0.001984,-0.000883,0.000188,0.0,0.0,0.0,0.0,0.0,0.0,0.0,0.0,0.0,-0.085,0.044,-9.613,0.0,0.0,0.0,0.0,0.0,0.0,0.0,0.0,0.0
1581113395148017587,335,1581113395147809982,,0.864036412407,-0.00308119568522,-0.499501945858,0.86629920838,0.0,0.0,0.0,0.0,0.0,0.0,0.0,0.0,0.0,0.000857,-8.3e-05,1.5e-05,0.0,0.0,0.0,0.0,0.0,0.0,0.0,0.0,0.0,-0.102,0.029,-9.6,0.0,0.0,0.0,0.0,0.0,0.0,0.0,0.0,0.0
1581113395172692633,336,1581113395172573089,,0.864027625827,-0.00308113039479,-0.499517065556,0.866290490295,0.0,0.0,0.0,0.0,0.0,0.0,0.0,0.0,0.0,0.000595,0.000266,8.6e-05,0.0,0.0,0.0,0.0,0.0,0.0,0.0,0.0,0.0,-0.069,0.02,-9.599,0.0,0.0,0.0,0.0,0.0,0.0,0.0,0.0,0.0
1581113395197527265,337,1581113395197313070,,0.864027625827,-0.00308113039479,-0.499517065556,0.866290490295,0.0,0.0,0.0,0.0,0.0,0.0,0.0,0.0,0.0,0.000106,-0.00033,0.000112,0.0,0.0,0.0,0.0,0.0,0.0,0.0,0.0,0.0,-0.074,0.028,-9.609,0.0,0.0,0.0,0.0,0.0,0.0,0.0,0.0,0.0
1581113395223383452,338,1581113395223252058,,0.864014445463,-0.00307344008518,-0.499547311393,0.866273095022,0.0,0.0,0.0,0.0,0.0,0.0,0.0,0.0,0.0,0.001027,0.000959,-0.000956,0.0,0.0,0.0,0.0,0.0,0.0,0.0,0.0,0.0,-0.071,0.052,-9.585,0.0,0.0,0.0,0.0,0.0,0.0,0.0,0.0,0.0
1581113395247755637,339,1581113395247634887,,0.864001277304,-0.00308529402232,-0.49956239683,0.866264367069,0.0,0.0,0.0,0.0,0.0,0.0,0.0,0.0,0.0,0.000775,-0.001434,0.000215,0.0,0.0,0.0,0.0,0.0,0.0,0.0,0.0,0.0,-0.1,0.03,-9.629,0.0,0.0,0.0,0.0,0.0,0.0,0.0,0.0,0.0
1581113395272722445,340,1581113395272608041,,0.864010064674,-0.00308535918362,-0.499547277588,0.866273085946,0.0,0.0,0.0,0.0,0.0,0.0,0.0,0.0,0.0,-0.000557,-0.000494,-0.000797,0.0,0.0,0.0,0.0,0.0,0.0,0.0,0.0,0.0,-0.082,0.022,-9.577,0.0,0.0,0.0,0.0,0.0,0.0,0.0,0.0,0.0
1581113395297697974,341,1581113395297547101,,0.864014445463,-0.00307344008518,-0.499547311393,0.866273095022,0.0,0.0,0.0,0.0,0.0,0.0,0.0,0.0,0.0,0.00025,0.001246,0.00138,0.0,0.0,0.0,0.0,0.0,0.0,0.0,0.0,0.0,-0.071,0.032,-9.58,0.0,0.0,0.0,0.0,0.0,0.0,0.0,0.0,0.0
1581113395322337453,342,1581113395322176933,,0.864014445463,-0.00306584778858,-0.499554877894,0.866268777241,0.0,0.0,0.0,0.0,0.0,0.0,0.0,0.0,0.0,0.000134,-0.000408,-0.000127,0.0,0.0,0.0,0.0,0.0,0.0,0.0,0.0,0.0,-0.088,0.057,-9.604,0.0,0.0,0.0,0.0,0.0,0.0,0.0,0.0,0.0
1581113395348145262,343,1581113395348023891,,0.864023232438,-0.00305832063259,-0.499547325076,0.866273178205,0.0,0.0,0.0,0.0,0.0,0.0,0.0,0.0,0.0,0.001145,0.000513,0.000105,0.0,0.0,0.0,0.0,0.0,0.0,0.0,0.0,0.0,-0.068,0.032,-9.587,0.0,0.0,0.0,0.0,0.0,0.0,0.0,0.0,0.0
1581113395373002610,344,1581113395372836112,,0.86401882612,-0.00306152098615,-0.499547344989,0.866273104043,0.0,0.0,0.0,0.0,0.0,0.0,0.0,0.0,0.0,-0.000556,0.000356,9.8e-05,0.0,0.0,0.0,0.0,0.0,0.0,0.0,0.0,0.0,-0.089,0.017,-9.593,0.0,0.0,0.0,0.0,0.0,0.0,0.0,0.0,0.0
1581113395397752959,345,1581113395397619962,,0.864027612963,-0.00306158625823,-0.499532225595,0.866281822657,0.0,0.0,0.0,0.0,0.0,0.0,0.0,0.0,0.0,-0.000199,0.000564,0.000399,0.0,0.0,0.0,0.0,0.0,0.0,0.0,0.0,0.0,-0.099,0.03,-9.576,0.0,0.0,0.0,0.0,0.0,0.0,0.0,0.0,0.0
1581113395422726801,346,1581113395422606945,,0.864018838983,-0.00307347269341,-0.499539751715,0.866277454362,0.0,0.0,0.0,0.0,0.0,0.0,0.0,0.0,0.0,0.000946,-9.5e-05,-0.000683,0.0,0.0,0.0,0.0,0.0,0.0,0.0,0.0,0.0,-0.083,0.047,-9.602,0.0,0.0,0.0,0.0,0.0,0.0,0.0,0.0,0.0
1581113395447206458,347,1581113395447103977,,0.864010039013,-0.00306904803795,-0.499554897834,0.866268702975,0.0,0.0,0.0,0.0,0.0,0.0,0.0,0.0,0.0,-0.000243,0.000474,0.000733,0.0,0.0,0.0,0.0,0.0,0.0,0.0,0.0,0.0,-0.093,0.036,-9.609,0.0,0.0,0.0,0.0,0.0,0.0,0.0,0.0,0.0
1581113395472800515,348,1581113395472681999,,0.864010039013,-0.00307664043839,-0.499547331362,0.866273020653,0.0,0.0,0.0,0.0,0.0,0.0,0.0,0.0,0.0,-0.000773,-0.001364,0.001471,0.0,0.0,0.0,0.0,0.0,0.0,0.0,0.0,0.0,-0.066,0.039,-9.593,0.0,0.0,0.0,0.0,0.0,0.0,0.0,0.0,0.0
1581113395497981871,349,1581113395497840881,,0.863983688976,-0.00308080392858,-0.49959266176,0.866246895909,0.0,0.0,0.0,0.0,0.0,0.0,0.0,0.0,0.0,5.6e-05,0.000125,0.000418,0.0,0.0,0.0,0.0,0.0,0.0,0.0,0.0,0.0,-0.062,0.022,-9.608,0.0,0.0,0.0,0.0,0.0,0.0,0.0,0.0,0.0
1581113395522928519,350,1581113395522805929,,0.863983688976,-0.00308080392858,-0.49959266176,0.866246895909,0.0,0.0,0.0,0.0,0.0,0.0,0.0,0.0,0.0,-0.000545,0.000661,-0.001188,0.0,0.0,0.0,0.0,0.0,0.0,0.0,0.0,0.0,-0.075,0.017,-9.618,0.0,0.0,0.0,0.0,0.0,0.0,0.0,0.0,0.0
1581113395547684034,351,1581113395547481060,,0.863983688976,-0.0030656197891,-0.49960779431,0.866238259554,0.0,0.0,0.0,0.0,0.0,0.0,0.0,0.0,0.0,4.8e-05,0.00153,0.000121,0.0,0.0,0.0,0.0,0.0,0.0,0.0,0.0,0.0,-0.095,0.036,-9.592,0.0,0.0,0.0,0.0,0.0,0.0,0.0,0.0,0.0
1581113395572737924,352,1581113395572606086,,0.863966112394,-0.00306548949855,-0.499638031425,0.866220819424,0.0,0.0,0.0,0.0,0.0,0.0,0.0,0.0,0.0,0.000289,0.000737,-0.001011,0.0,0.0,0.0,0.0,0.0,0.0,0.0,0.0,0.0,-0.077,0.038,-9.574,0.0,0.0,0.0,0.0,0.0,0.0,0.0,0.0,0.0
1581113395597759209,353,1581113395597629070,,0.863974913614,-0.0030699146766,-0.499622886172,0.866229572161,0.0,0.0,0.0,0.0,0.0,0.0,0.0,0.0,0.0,0.000806,-0.00021,0.000477,0.0,0.0,0.0,0.0,0.0,0.0,0.0,0.0,0.0,-0.09,0.039,-9.608,0.0,0.0,0.0,0.0,0.0,0.0,0.0,0.0,0.0
1581113395622465697,354,1581113395622349977,,0.863988070094,-0.00306129252652,-0.49960026167,0.866242586816,0.0,0.0,0.0,0.0,0.0,0.0,0.0,0.0,0.0,-0.000992,-0.000822,-0.000562,0.0,0.0,0.0,0.0,0.0,0.0,0.0,0.0,0.0,-0.082,0.03,-9.617,0.0,0.0,0.0,0.0,0.0,0.0,0.0,0.0,0.0
1581113395647828368,355,1581113395647692918,,0.863988070094,-0.00305370046637,-0.499607827803,0.866238268545,0.0,0.0,0.0,0.0,0.0,0.0,0.0,0.0,0.0,0.000635,8.2e-05,0.000346,0.0,0.0,0.0,0.0,0.0,0.0,0.0,0.0,0.0,-0.084,0.036,-9.603,0.0,0.0,0.0,0.0,0.0,0.0,0.0,0.0,0.0
1581113395673003274,356,1581113395672844886,,0.863988070094,-0.00306129252652,-0.49960026167,0.866242586816,0.0,0.0,0.0,0.0,0.0,0.0,0.0,0.0,0.0,-0.000317,0.000262,-0.000902,0.0,0.0,0.0,0.0,0.0,0.0,0.0,0.0,0.0,-0.076,0.039,-9.582,0.0,0.0,0.0,0.0,0.0,0.0,0.0,0.0,0.0
1581113395697490030,357,1581113395697377920,,0.863988070094,-0.00305370046637,-0.499607827803,0.866238268545,0.0,0.0,0.0,0.0,0.0,0.0,0.0,0.0,0.0,0.000172,0.0002,-0.000185,0.0,0.0,0.0,0.0,0.0,0.0,0.0,0.0,0.0,-0.11,0.033,-9.612,0.0,0.0,0.0,0.0,0.0,0.0,0.0,0.0,0.0
1581113395723291600,358,1581113395723176002,,0.863992476873,-0.00307327704053,-0.499585109211,0.866251297334,0.0,0.0,0.0,0.0,0.0,0.0,0.0,0.0,0.0,-0.000242,-0.000259,-0.001713,0.0,0.0,0.0,0.0,0.0,0.0,0.0,0.0,0.0,-0.088,0.036,-9.59,0.0,0.0,0.0,0.0,0.0,0.0,0.0,0.0,0.0
1581113395747777964,359,1581113395747658967,,0.864001251643,-0.00306898268838,-0.499570016999,0.866259983965,0.0,0.0,0.0,0.0,0.0,0.0,0.0,0.0,0.0,0.000765,-2.7e-05,-3.7e-05,0.0,0.0,0.0,0.0,0.0,0.0,0.0,0.0,0.0,-0.096,0.015,-9.603,0.0,0.0,0.0,0.0,0.0,0.0,0.0,0.0,0.0
1581113395773870041,360,1581113395773765087,,0.864001264506,-0.00305815796837,-0.499585122898,0.866251380516,0.0,0.0,0.0,0.0,0.0,0.0,0.0,0.0,0.0,0.000841,0.000673,0.00137,0.0,0.0,0.0,0.0,0.0,0.0,0.0,0.0,0.0,-0.096,0.038,-9.612,0.0,0.0,0.0,0.0,0.0,0.0,0.0,0.0,0.0
1581113395797870111,361,1581113395797724008,,0.864010039013,-0.00305386346393,-0.499570030553,0.866260067224,0.0,0.0,0.0,0.0,0.0,0.0,0.0,0.0,0.0,-9.2e-05,0.000636,-0.000755,0.0,0.0,0.0,0.0,0.0,0.0,0.0,0.0,0.0,-0.081,0.03,-9.618,0.0,0.0,0.0,0.0,0.0,0.0,0.0,0.0,0.0
1581113395822535156,362,1581113395822391033,,0.864018838983,-0.00304310380949,-0.499570017417,0.866260182708,0.0,0.0,0.0,0.0,0.0,0.0,0.0,0.0,0.0,-0.000117,-0.001085,0.000682,0.0,0.0,0.0,0.0,0.0,0.0,0.0,0.0,0.0,-0.071,0.04,-9.607,0.0,0.0,0.0,0.0,0.0,0.0,0.0,0.0,0.0
1581113395847368897,363,1581113395847210884,,0.864023219574,-0.00303118462551,-0.499570050598,0.866260191617,0.0,0.0,0.0,0.0,0.0,0.0,0.0,0.0,0.0,-2.5e-05,0.000608,-0.001146,0.0,0.0,0.0,0.0,0.0,0.0,0.0,0.0,0.0,-0.082,0.054,-9.606,0.0,0.0,0.0,0.0,0.0,0.0,0.0,0.0,0.0
1581113395872863075,364,1581113395872746944,,0.864032006286,-0.00303124959464,-0.499554931429,0.866268910627,0.0,0.0,0.0,0.0,0.0,0.0,0.0,0.0,0.0,-5.4e-05,-0.001189,0.000398,0.0,0.0,0.0,0.0,0.0,0.0,0.0,0.0,0.0,-0.066,0.047,-9.602,0.0,0.0,0.0,0.0,0.0,0.0,0.0,0.0,0.0
1581113395897838087,365,1581113395897726058,,0.86401882612,-0.00303874423855,-0.499570043954,0.866260150218,0.0,0.0,0.0,0.0,0.0,0.0,0.0,0.0,0.0,0.001222,-0.000148,0.001804,0.0,0.0,0.0,0.0,0.0,0.0,0.0,0.0,0.0,-0.084,0.038,-9.609,0.0,0.0,0.0,0.0,0.0,0.0,0.0,0.0,0.0
1581113395930288450,366,1581113395930042028,,0.864023206645,-0.00302682505428,-0.499570077031,0.866260159099,0.0,0.0,0.0,0.0,0.0,0.0,0.0,0.0,0.0,0.000323,0.000105,-0.000506,0.0,0.0,0.0,0.0,0.0,0.0,0.0,0.0,0.0,-0.088,0.055,-9.569,0.0,0.0,0.0,0.0,0.0,0.0,0.0,0.0,0.0
1581113395948168872,367,1581113395948009014,,0.864023206645,-0.00301923292811,-0.499577643098,0.866255840865,0.0,0.0,0.0,0.0,0.0,0.0,0.0,0.0,0.0,-0.000169,-0.001256,-0.00177,0.0,0.0,0.0,0.0,0.0,0.0,0.0,0.0,0.0,-0.076,0.012,-9.618,0.0,0.0,0.0,0.0,0.0,0.0,0.0,0.0,0.0
1581113395973242317,368,1581113395973141908,,0.864010039013,-0.00303108717007,-0.499592729065,0.866247112606,0.0,0.0,0.0,0.0,0.0,0.0,0.0,0.0,0.0,0.000859,-0.000393,0.000653,0.0,0.0,0.0,0.0,0.0,0.0,0.0,0.0,0.0,-0.076,0.033,-9.595,0.0,0.0,0.0,0.0,0.0,0.0,0.0,0.0,0.0
1581113396016088289,369,1581113396015750885,,0.86401441967,-0.00301916790174,-0.499592762038,0.866247121458,0.0,0.0,0.0,0.0,0.0,0.0,0.0,0.0,0.0,-0.001406,-0.001039,0.000531,0.0,0.0,0.0,0.0,0.0,0.0,0.0,0.0,0.0,-0.081,0.052,-9.582,0.0,0.0,0.0,0.0,0.0,0.0,0.0,0.0,0.0
1581113396025298453,370,1581113396025124073,,0.864010026083,-0.00301913538821,-0.499600321451,0.866242761656,0.0,0.0,0.0,0.0,0.0,0.0,0.0,0.0,0.0,-0.000346,-0.000702,-0.00044,0.0,0.0,0.0,0.0,0.0,0.0,0.0,0.0,0.0,-0.071,0.02,-9.574,0.0,0.0,0.0,0.0,0.0,0.0,0.0,0.0,0.0
1581113396048686951,371,1581113396048552989,,0.864014432599,-0.00302352767093,-0.499592735672,0.866247153939,0.0,0.0,0.0,0.0,0.0,0.0,0.0,0.0,0.0,0.000364,0.000302,0.00097,0.0,0.0,0.0,0.0,0.0,0.0,0.0,0.0,0.0,-0.098,0.039,-9.581,0.0,0.0,0.0,0.0,0.0,0.0,0.0,0.0,0.0
1581113396073421466,372,1581113396073271036,,0.864001251643,-0.00303102219862,-0.499607847853,0.866238392936,0.0,0.0,0.0,0.0,0.0,0.0,0.0,0.0,0.0,-0.000382,-3.5e-05,-0.000331,0.0,0.0,0.0,0.0,0.0,0.0,0.0,0.0,0.0,-0.077,0.017,-9.628,0.0,0.0,0.0,0.0,0.0,0.0,0.0,0.0,0.0
1581113396097392031,373,1581113396097289085,,0.86401882612,-0.00302356011826,-0.49958517622,0.866251513675,0.0,0.0,0.0,0.0,0.0,0.0,0.0,0.0,0.0,0.000547,-0.000929,0.001627,0.0,0.0,0.0,0.0,0.0,0.0,0.0,0.0,0.0,-0.077,0.032,-9.59,0.0,0.0,0.0,0.0,0.0,0.0,0.0,0.0,0.0
1581113396131252061,374,1581113396130887031,,0.864027612963,-0.00302362501224,-0.499570057203,0.866260232949,0.0,0.0,0.0,0.0,0.0,0.0,0.0,0.0,0.0,-0.000533,0.000125,0.000768,0.0,0.0,0.0,0.0,0.0,0.0,0.0,0.0,0.0,-0.057,0.025,-9.618,0.0,0.0,0.0,0.0,0.0,0.0,0.0,0.0,0.0
1581113396148304056,375,1581113396148144006,,0.864040779805,-0.0030117707763,-0.499554970902,0.866268960785,0.0,0.0,0.0,0.0,0.0,0.0,0.0,0.0,0.0,-7.9e-05,-7.6e-05,-9.9e-05,0.0,0.0,0.0,0.0,0.0,0.0,0.0,0.0,0.0,-0.088,0.048,-9.562,0.0,0.0,0.0,0.0,0.0,0.0,0.0,0.0,0.0
1581113396173534824,376,1581113396173418998,,0.86401881319,-0.00301160840231,-0.499592768541,0.866247162762,0.0,0.0,0.0,0.0,0.0,0.0,0.0,0.0,0.0,-0.000389,0.000237,0.000893,0.0,0.0,0.0,0.0,0.0,0.0,0.0,0.0,0.0,-0.087,0.037,-9.603,0.0,0.0,0.0,0.0,0.0,0.0,0.0,0.0,0.0
1581113396197508854,377,1581113396197362899,,0.864023219574,-0.00301600058085,-0.499585182789,0.866251554941,0.0,0.0,0.0,0.0,0.0,0.0,0.0,0.0,0.0,-0.001405,-0.000423,0.000611,0.0,0.0,0.0,0.0,0.0,0.0,0.0,0.0,0.0,-0.08,0.045,-9.598,0.0,0.0,0.0,0.0,0.0,0.0,0.0,0.0,0.0
1581113396223282531,378,1581113396223135948,,0.864005632431,-0.00301151097517,-0.499615446667,0.866234083157,0.0,0.0,0.0,0.0,0.0,0.0,0.0,0.0,0.0,0.000133,-0.000306,-0.001035,0.0,0.0,0.0,0.0,0.0,0.0,0.0,0.0,0.0,-0.074,0.026,-9.589,0.0,0.0,0.0,0.0,0.0,0.0,0.0,0.0,0.0
1581113396248818477,379,1581113396248619079,,0.863996857859,-0.00301580612168,-0.499630538929,0.866225395534,0.0,0.0,0.0,0.0,0.0,0.0,0.0,0.0,0.0,-0.000295,0.001132,0.000472,0.0,0.0,0.0,0.0,0.0,0.0,0.0,0.0,0.0,-0.101,0.047,-9.613,0.0,0.0,0.0,0.0,0.0,0.0,0.0,0.0,0.0
1581113396273770258,380,1581113396273662090,,0.863983650189,-0.0030069882948,-0.499653269044,0.866212249986,0.0,0.0,0.0,0.0,0.0,0.0,0.0,0.0,0.0,-0.000727,-0.000261,-0.001135,0.0,0.0,0.0,0.0,0.0,0.0,0.0,0.0,0.0,-0.088,0.027,-9.595,0.0,0.0,0.0,0.0,0.0,0.0,0.0,0.0,0.0
1581113396298726451,381,1581113396298448085,,0.863970480846,-0.00301125115937,-0.499675919997,0.866199201308,0.0,0.0,0.0,0.0,0.0,0.0,0.0,0.0,0.0,0.00116,-0.000412,0.00014,0.0,0.0,0.0,0.0,0.0,0.0,0.0,0.0,0.0,-0.07,0.033,-9.585,0.0,0.0,0.0,0.0,0.0,0.0,0.0,0.0,0.0
1581113396323398097,382,1581113396323282957,,0.863983650189,-0.0030069882948,-0.499653269044,0.866212249986,0.0,0.0,0.0,0.0,0.0,0.0,0.0,0.0,0.0,-0.001353,-0.00034,0.000942,0.0,0.0,0.0,0.0,0.0,0.0,0.0,0.0,0.0,-0.106,0.024,-9.605,0.0,0.0,0.0,0.0,0.0,0.0,0.0,0.0,0.0
1581113396348214590,383,1581113396348109960,,0.863970467852,-0.00300689066425,-0.499675946256,0.866199168797,0.0,0.0,0.0,0.0,0.0,0.0,0.0,0.0,0.0,-0.00049,0.001302,0.000763,0.0,0.0,0.0,0.0,0.0,0.0,0.0,0.0,0.0,-0.077,0.01,-9.598,0.0,0.0,0.0,0.0,0.0,0.0,0.0,0.0,0.0
1581113396374066394,384,1581113396373960018,,0.863974875025,-0.00299610059499,-0.499683491892,0.86619492319,0.0,0.0,0.0,0.0,0.0,0.0,0.0,0.0,0.0,0.000424,0.000374,-0.00028,0.0,0.0,0.0,0.0,0.0,0.0,0.0,0.0,0.0,-0.096,0.013,-9.6,0.0,0.0,0.0,0.0,0.0,0.0,0.0,0.0,0.0
1581113396398749104,385,1581113396398626089,,0.863983676113,-0.0030005258276,-0.499668347697,0.866203676548,0.0,0.0,0.0,0.0,0.0,0.0,0.0,0.0,0.0,0.000212,0.000424,-0.000492,0.0,0.0,0.0,0.0,0.0,0.0,0.0,0.0,0.0,-0.074,0.037,-9.584,0.0,0.0,0.0,0.0,0.0,0.0,0.0,0.0,0.0
1581113396423714330,386,1581113396423598051,,0.863961705221,-0.00300036414676,-0.499706142487,0.866181873579,0.0,0.0,0.0,0.0,0.0,0.0,0.0,0.0,0.0,0.000184,-7.8e-05,-0.000324,0.0,0.0,0.0,0.0,0.0,0.0,0.0,0.0,0.0,-0.092,0.022,-9.595,0.0,0.0,0.0,0.0,0.0,0.0,0.0,0.0,0.0
1581113396448606379,387,1581113396448451995,,0.863966125191,-0.00300911786848,-0.499698531162,0.866186298846,0.0,0.0,0.0,0.0,0.0,0.0,0.0,0.0,0.0,0.000641,-0.001622,0.000592,0.0,0.0,0.0,0.0,0.0,0.0,0.0,0.0,0.0,-0.095,0.026,-9.595,0.0,0.0,0.0,0.0,0.0,0.0,0.0,0.0,0.0
1581113396487420567,388,1581113396487080097,,0.863983714505,-0.00301360711332,-0.499668268972,0.866203773258,0.0,0.0,0.0,0.0,0.0,0.0,0.0,0.0,0.0,-0.000584,0.000662,0.000597,0.0,0.0,0.0,0.0,0.0,0.0,0.0,0.0,0.0,-0.082,0.043,-9.609,0.0,0.0,0.0,0.0,0.0,0.0,0.0,0.0,0.0
1581113396499964658,389,1581113396499811887,,0.863970519435,-0.00300915007295,-0.499690972241,0.866190659505,0.0,0.0,0.0,0.0,0.0,0.0,0.0,0.0,0.0,-0.000211,-0.00033,-0.000619,0.0,0.0,0.0,0.0,0.0,0.0,0.0,0.0,0.0,-0.091,0.021,-9.638,0.0,0.0,0.0,0.0,0.0,0.0,0.0,0.0,0.0
1581113396523450895,390,1581113396523332118,,0.863974900817,-0.00302000449475,-0.499668308331,0.866203626594,0.0,0.0,0.0,0.0,0.0,0.0,0.0,0.0,0.0,0.000506,-0.000836,0.000607,0.0,0.0,0.0,0.0,0.0,0.0,0.0,0.0,0.0,-0.098,0.02,-9.616,0.0,0.0,0.0,0.0,0.0,0.0,0.0,0.0,0.0
1581113396548509048,391,1581113396548403978,,0.863988082957,-0.00302010153092,-0.499645631002,0.866216707583,0.0,0.0,0.0,0.0,0.0,0.0,0.0,0.0,0.0,0.000202,0.000293,0.001259,0.0,0.0,0.0,0.0,0.0,0.0,0.0,0.0,0.0,-0.083,0.042,-9.603,0.0,0.0,0.0,0.0,0.0,0.0,0.0,0.0,0.0
1581113396574900405,392,1581113396574783086,,0.863988095755,-0.00301687028718,-0.499653170441,0.866212420755,0.0,0.0,0.0,0.0,0.0,0.0,0.0,0.0,0.0,-6.2e-05,-0.000142,6.6e-05,0.0,0.0,0.0,0.0,0.0,0.0,0.0,0.0,0.0,-0.095,0.043,-9.592,0.0,0.0,0.0,0.0,0.0,0.0,0.0,0.0,0.0
1581113396598425785,393,1581113396598279953,,0.86399688352,-0.00300934329494,-0.49964561792,0.866216822076,0.0,0.0,0.0,0.0,0.0,0.0,0.0,0.0,0.0,-0.000274,-4.6e-05,-1.2e-05,0.0,0.0,0.0,0.0,0.0,0.0,0.0,0.0,0.0,-0.068,0.024,-9.61,0.0,0.0,0.0,0.0,0.0,0.0,0.0,0.0,0.0
1581113396623386507,394,1581113396623280048,,0.863983701774,-0.00300924668498,-0.499668295252,0.866203741088,0.0,0.0,0.0,0.0,0.0,0.0,0.0,0.0,0.0,0.000353,-0.000624,-0.000423,0.0,0.0,0.0,0.0,0.0,0.0,0.0,0.0,0.0,-0.075,0.026,-9.607,0.0,0.0,0.0,0.0,0.0,0.0,0.0,0.0,0.0
1581113396648810532,395,1581113396648644924,,0.863979307727,-0.00301680580421,-0.499668288624,0.86620370003,0.0,0.0,0.0,0.0,0.0,0.0,0.0,0.0,0.0,-2.9e-05,-0.000321,-0.000298,0.0,0.0,0.0,0.0,0.0,0.0,0.0,0.0,0.0,-0.091,0.054,-9.607,0.0,0.0,0.0,0.0,0.0,0.0,0.0,0.0,0.0
1581113396673552648,396,1581113396673413038,,0.863979294929,-0.00301244537569,-0.499668314931,0.866203667755,0.0,0.0,0.0,0.0,0.0,0.0,0.0,0.0,0.0,0.001667,-3e-05,9.3e-05,0.0,0.0,0.0,0.0,0.0,0.0,0.0,0.0,0.0,-0.084,0.02,-9.591,0.0,0.0,0.0,0.0,0.0,0.0,0.0,0.0,0.0
1581113396698368631,397,1581113396698257923,,0.863979307727,-0.00301680580421,-0.499668288624,0.86620370003,0.0,0.0,0.0,0.0,0.0,0.0,0.0,0.0,0.0,-0.000378,0.000403,-0.00086,0.0,0.0,0.0,0.0,0.0,0.0,0.0,0.0,0.0,-0.088,0.023,-9.558,0.0,0.0,0.0,0.0,0.0,0.0,0.0,0.0,0.0
1581113396723428635,398,1581113396723273038,,0.863992502402,-0.00301367138827,-0.499653150788,0.866212493983,0.0,0.0,0.0,0.0,0.0,0.0,0.0,0.0,0.0,-0.000152,-5.3e-05,3.4e-05,0.0,0.0,0.0,0.0,0.0,0.0,0.0,0.0,0.0,-0.094,0.02,-9.59,0.0,0.0,0.0,0.0,0.0,0.0,0.0,0.0,0.0
1581113396748320701,399,1581113396748213052,,0.863983727171,-0.00302555877022,-0.499660676822,0.866208124777,0.0,0.0,0.0,0.0,0.0,0.0,0.0,0.0,0.0,-0.000955,-0.001063,-0.000344,0.0,0.0,0.0,0.0,0.0,0.0,0.0,0.0,0.0,-0.091,0.05,-9.574,0.0,0.0,0.0,0.0,0.0,0.0,0.0,0.0,0.0
1581113396773853481,400,1581113396773746013,,0.863966137922,-0.00302866092337,-0.499683373576,0.866194970165,0.0,0.0,0.0,0.0,0.0,0.0,0.0,0.0,0.0,-8e-06,0.000417,0.000178,0.0,0.0,0.0,0.0,0.0,0.0,0.0,0.0,0.0,-0.086,0.036,-9.577,0.0,0.0,0.0,0.0,0.0,0.0,0.0,0.0,0.0
1581113396798640381,401,1581113396798460006,,0.863983714505,-0.00302119840813,-0.499660703206,0.866208092634,0.0,0.0,0.0,0.0,0.0,0.0,0.0,0.0,0.0,0.000297,0.000946,9.8e-05,0.0,0.0,0.0,0.0,0.0,0.0,0.0,0.0,0.0,-0.074,0.043,-9.595,0.0,0.0,0.0,0.0,0.0,0.0,0.0,0.0,0.0
1581113396823617893,402,1581113396823472976,,0.863988108486,-0.00302123058354,-0.499653144095,0.866212452963,0.0,0.0,0.0,0.0,0.0,0.0,0.0,0.0,0.0,0.001021,0.000295,0.000452,0.0,0.0,0.0,0.0,0.0,0.0,0.0,0.0,0.0,-0.094,0.052,-9.603,0.0,0.0,0.0,0.0,0.0,0.0,0.0,0.0,0.0
1581113396848416955,403,1581113396848265886,,0.863974900817,-0.00302000449475,-0.499668308331,0.866203626594,0.0,0.0,0.0,0.0,0.0,0.0,0.0,0.0,0.0,-0.000857,-0.000262,-0.00072,0.0,0.0,0.0,0.0,0.0,0.0,0.0,0.0,0.0,-0.078,0.025,-9.579,0.0,0.0,0.0,0.0,0.0,0.0,0.0,0.0,0.0
1581113396873321933,404,1581113396873208999,,0.863988082957,-0.00302010153092,-0.499645631002,0.866216707583,0.0,0.0,0.0,0.0,0.0,0.0,0.0,0.0,0.0,-0.000653,0.000447,0.000182,0.0,0.0,0.0,0.0,0.0,0.0,0.0,0.0,0.0,-0.095,0.037,-9.6,0.0,0.0,0.0,0.0,0.0,0.0,0.0,0.0,0.0
1581113396898651637,405,1581113396898483037,,0.863988070094,-0.00300814969378,-0.499653223019,0.86621235614,0.0,0.0,0.0,0.0,0.0,0.0,0.0,0.0,0.0,-0.000436,-0.000212,-0.000709,0.0,0.0,0.0,0.0,0.0,0.0,0.0,0.0,0.0,-0.091,0.033,-9.599,0.0,0.0,0.0,0.0,0.0,0.0,0.0,0.0,0.0
1581113396923774491,406,1581113396923639059,,0.863983676113,-0.00300811732048,-0.499660782129,0.866207995811,0.0,0.0,0.0,0.0,0.0,0.0,0.0,0.0,0.0,-0.000262,0.00041,-0.000506,0.0,0.0,0.0,0.0,0.0,0.0,0.0,0.0,0.0,-0.093,-0.004,-9.605,0.0,0.0,0.0,0.0,0.0,0.0,0.0,0.0,0.0
1581113396948534629,407,1581113396948396921,,0.863974887954,-0.00301564406606,-0.499668334667,0.866203594215,0.0,0.0,0.0,0.0,0.0,0.0,0.0,0.0,0.0,-0.000227,-3.1e-05,3.4e-05,0.0,0.0,0.0,0.0,0.0,0.0,0.0,0.0,0.0,-0.09,0.028,-9.582,0.0,0.0,0.0,0.0,0.0,0.0,0.0,0.0,0.0
1581113396973737515,408,1581113396973606109,,0.863966099531,-0.00301557924221,-0.499683452695,0.866194873225,0.0,0.0,0.0,0.0,0.0,0.0,0.0,0.0,0.0,-6.6e-05,-0.000265,-0.000553,0.0,0.0,0.0,0.0,0.0,0.0,0.0,0.0,0.0,-0.085,0.03,-9.605,0.0,0.0,0.0,0.0,0.0,0.0,0.0,0.0,0.0
1581113396998669399,409,1581113396998492002,,0.863957310845,-0.00302310583467,-0.499691005079,0.866190471366,0.0,0.0,0.0,0.0,0.0,0.0,0.0,0.0,0.0,-0.000733,-0.000124,0.000309,0.0,0.0,0.0,0.0,0.0,0.0,0.0,0.0,0.0,-0.109,0.073,-9.607,0.0,0.0,0.0,0.0,0.0,0.0,0.0,0.0,0.0
1581113397023786765,410,1581113397023658037,,0.863957284922,-0.00302197620585,-0.499683492331,0.86619472552,0.0,0.0,0.0,0.0,0.0,0.0,0.0,0.0,0.0,0.000441,-0.000819,-0.001335,0.0,0.0,0.0,0.0,0.0,0.0,0.0,0.0,0.0,-0.095,0.043,-9.565,0.0,0.0,0.0,0.0,0.0,0.0,0.0,0.0,0.0
1581113397049186832,411,1581113397049048900,,0.863966086602,-0.00301881024026,-0.49967591349,0.866199160005,0.0,0.0,0.0,0.0,0.0,0.0,0.0,0.0,0.0,-0.000153,0.000104,0.000617,0.0,0.0,0.0,0.0,0.0,0.0,0.0,0.0,0.0,-0.101,0.019,-9.554,0.0,0.0,0.0,0.0,0.0,0.0,0.0,0.0,0.0
1581113397073807863,412,1581113397073678016,,0.863952903475,-0.00301112124596,-0.499706155749,0.866181758801,0.0,0.0,0.0,0.0,0.0,0.0,0.0,0.0,0.0,-0.000248,-0.000235,-0.000205,0.0,0.0,0.0,0.0,0.0,0.0,0.0,0.0,0.0,-0.065,0.026,-9.615,0.0,0.0,0.0,0.0,0.0,0.0,0.0,0.0,0.0
1581113397098853129,413,1581113397098721027,,0.863944114394,-0.00301105628788,-0.499721273396,0.866173037151,0.0,0.0,0.0,0.0,0.0,0.0,0.0,0.0,0.0,-8.3e-05,0.000153,-0.000806,0.0,0.0,0.0,0.0,0.0,0.0,0.0,0.0,0.0,-0.092,0.026,-9.561,0.0,0.0,0.0,0.0,0.0,0.0,0.0,0.0,0.0
1581113397123747846,414,1581113397123609066,,0.863935337979,-0.00300776119902,-0.499743929825,0.866160027828,0.0,0.0,0.0,0.0,0.0,0.0,0.0,0.0,0.0,8.1e-05,-0.00019,0.000663,0.0,0.0,0.0,0.0,0.0,0.0,0.0,0.0,0.0,-0.094,0.015,-9.592,0.0,0.0,0.0,0.0,0.0,0.0,0.0,0.0,0.0
1581113397149682766,415,1581113397149480104,,0.863944127323,-0.00300782595043,-0.499728812405,0.866168749873,0.0,0.0,0.0,0.0,0.0,0.0,0.0,0.0,0.0,5.2e-05,-0.000659,-0.00035,0.0,0.0,0.0,0.0,0.0,0.0,0.0,0.0,0.0,-0.087,0.04,-9.597,0.0,0.0,0.0,0.0,0.0,0.0,0.0,0.0,0.0
1581113397173920127,416,1581113397173794984,,0.863944140185,-0.00300459582045,-0.499736351432,0.866164462321,0.0,0.0,0.0,0.0,0.0,0.0,0.0,0.0,0.0,0.000202,-0.000649,-0.000133,0.0,0.0,0.0,0.0,0.0,0.0,0.0,0.0,0.0,-0.08,0.031,-9.597,0.0,0.0,0.0,0.0,0.0,0.0,0.0,0.0,0.0
1581113397198906195,417,1581113397198766946,,0.863961705221,-0.00300036414676,-0.499706142487,0.866181873579,0.0,0.0,0.0,0.0,0.0,0.0,0.0,0.0,0.0,0.000503,-0.000355,0.000271,0.0,0.0,0.0,0.0,0.0,0.0,0.0,0.0,0.0,-0.086,0.051,-9.619,0.0,0.0,0.0,0.0,0.0,0.0,0.0,0.0,0.0
1581113397223733376,418,1581113397223598003,,0.863957310845,-0.00300792307584,-0.499706135989,0.866181832446,0.0,0.0,0.0,0.0,0.0,0.0,0.0,0.0,0.0,-0.000457,-0.000375,0.000318,0.0,0.0,0.0,0.0,0.0,0.0,0.0,0.0,0.0,-0.085,0.034,-9.598,0.0,0.0,0.0,0.0,0.0,0.0,0.0,0.0,0.0
1581113397248634151,419,1581113397248461961,,0.863957310845,-0.00300033180991,-0.49971370133,0.866177512787,0.0,0.0,0.0,0.0,0.0,0.0,0.0,0.0,0.0,-0.001043,0.001185,0.000787,0.0,0.0,0.0,0.0,0.0,0.0,0.0,0.0,0.0,-0.099,0.028,-9.608,0.0,0.0,0.0,0.0,0.0,0.0,0.0,0.0,0.0
1581113397273996408,420,1581113397273875951,,0.863974887954,-0.00300046115595,-0.499683465727,0.866194955559,0.0,0.0,0.0,0.0,0.0,0.0,0.0,0.0,0.0,2.9e-05,0.000124,2.7e-05,0.0,0.0,0.0,0.0,0.0,0.0,0.0,0.0,0.0,-0.09,0.041,-9.574,0.0,0.0,0.0,0.0,0.0,0.0,0.0,0.0,0.0
1581113397298943938,421,1581113397298810958,,0.863979282066,-0.00300808494695,-0.499668341201,0.866203635415,0.0,0.0,0.0,0.0,0.0,0.0,0.0,0.0,0.0,0.000488,0.000601,0.001529,0.0,0.0,0.0,0.0,0.0,0.0,0.0,0.0,0.0,-0.077,0.004,-9.592,0.0,0.0,0.0,0.0,0.0,0.0,0.0,0.0,0.0
1581113397323972429,422,1581113397323813915,,0.863996870722,-0.00301257460459,-0.499638078415,0.866221108942,0.0,0.0,0.0,0.0,0.0,0.0,0.0,0.0,0.0,0.001573,-0.000809,-0.000172,0.0,0.0,0.0,0.0,0.0,0.0,0.0,0.0,0.0,-0.073,0.028,-9.591,0.0,0.0,0.0,0.0,0.0,0.0,0.0,0.0,0.0
1581113397348781650,423,1581113397348644971,,0.863996870722,-0.00301257460459,-0.499638078415,0.866221108942,0.0,0.0,0.0,0.0,0.0,0.0,0.0,0.0,0.0,6.1e-05,0.001448,9.2e-05,0.0,0.0,0.0,0.0,0.0,0.0,0.0,0.0,0.0,-0.098,0.037,-9.596,0.0,0.0,0.0,0.0,0.0,0.0,0.0,0.0,0.0
1581113397373616480,424,1581113397373451948,,0.864005645361,-0.00300827918471,-0.4996229862,0.8662297968,0.0,0.0,0.0,0.0,0.0,0.0,0.0,0.0,0.0,0.000156,-0.0004,-0.000671,0.0,0.0,0.0,0.0,0.0,0.0,0.0,0.0,0.0,-0.08,0.032,-9.577,0.0,0.0,0.0,0.0,0.0,0.0,0.0,0.0,0.0
1581113397398790860,425,1581113397398660898,,0.863996870722,-0.00301257460459,-0.499638078415,0.866221108942,0.0,0.0,0.0,0.0,0.0,0.0,0.0,0.0,0.0,0.000102,-0.001076,-0.000569,0.0,0.0,0.0,0.0,0.0,0.0,0.0,0.0,0.0,-0.09,0.035,-9.588,0.0,0.0,0.0,0.0,0.0,0.0,0.0,0.0,0.0
1581113397423834252,426,1581113397423698902,,0.864001264506,-0.00302779029442,-0.499615387395,0.86623410675,0.0,0.0,0.0,0.0,0.0,0.0,0.0,0.0,0.0,-6.9e-05,-0.000211,0.001247,0.0,0.0,0.0,0.0,0.0,0.0,0.0,0.0,0.0,-0.096,0.01,-9.588,0.0,0.0,0.0,0.0,0.0,0.0,0.0,0.0,0.0
1581113397448929340,427,1581113397448812007,,0.86399248967,-0.00303208562819,-0.499630479515,0.866225419034,0.0,0.0,0.0,0.0,0.0,0.0,0.0,0.0,0.0,-0.000697,0.000345,-0.001009,0.0,0.0,0.0,0.0,0.0,0.0,0.0,0.0,0.0,-0.079,0.034,-9.6,0.0,0.0,0.0,0.0,0.0,0.0,0.0,0.0,0.0
1581113397473866713,428,1581113397473742008,,0.864010039013,-0.0030159033523,-0.49960786103,0.866238475535,0.0,0.0,0.0,0.0,0.0,0.0,0.0,0.0,0.0,-0.000645,0.000647,-0.001312,0.0,0.0,0.0,0.0,0.0,0.0,0.0,0.0,0.0,-0.105,0.033,-9.601,0.0,0.0,0.0,0.0,0.0,0.0,0.0,0.0,0.0
1581113397498704724,429,1581113397498572111,,0.86401882612,-0.00302356011826,-0.49958517622,0.866251513675,0.0,0.0,0.0,0.0,0.0,0.0,0.0,0.0,0.0,0.001229,-0.000197,0.000398,0.0,0.0,0.0,0.0,0.0,0.0,0.0,0.0,0.0,-0.074,0.025,-9.602,0.0,0.0,0.0,0.0,0.0,0.0,0.0,0.0,0.0
1581113397523708578,430,1581113397523570060,,0.86403201915,-0.00302801696396,-0.499562471232,0.866264624901,0.0,0.0,0.0,0.0,0.0,0.0,0.0,0.0,0.0,-2.5e-05,-0.000171,0.00012,0.0,0.0,0.0,0.0,0.0,0.0,0.0,0.0,0.0,-0.082,0.05,-9.555,0.0,0.0,0.0,0.0,0.0,0.0,0.0,0.0,0.0
1581113397549046897,431,1581113397548921108,,0.864023232438,-0.00303554419651,-0.499570024127,0.866260224068,0.0,0.0,0.0,0.0,0.0,0.0,0.0,0.0,0.0,0.001316,-0.00083,-4.8e-05,0.0,0.0,0.0,0.0,0.0,0.0,0.0,0.0,0.0,-0.091,0.021,-9.59,0.0,0.0,0.0,0.0,0.0,0.0,0.0,0.0,0.0
1581113397573926599,432,1581113397573798894,,0.864027612963,-0.00302362501224,-0.499570057203,0.866260232949,0.0,0.0,0.0,0.0,0.0,0.0,0.0,0.0,0.0,-0.001227,0.000895,-0.001765,0.0,0.0,0.0,0.0,0.0,0.0,0.0,0.0,0.0,-0.091,0.052,-9.6,0.0,0.0,0.0,0.0,0.0,0.0,0.0,0.0,0.0
1581113397598404755,433,1581113397598294019,,0.864023219574,-0.00302359256537,-0.499577616731,0.866255873345,0.0,0.0,0.0,0.0,0.0,0.0,0.0,0.0,0.0,-0.001184,-4.8e-05,-0.000136,0.0,0.0,0.0,0.0,0.0,0.0,0.0,0.0,0.0,-0.104,0.04,-9.621,0.0,0.0,0.0,0.0,0.0,0.0,0.0,0.0,0.0
1581113397623475043,434,1581113397623363018,,0.864023219574,-0.00302359256537,-0.499577616731,0.866255873345,0.0,0.0,0.0,0.0,0.0,0.0,0.0,0.0,0.0,-0.00035,-0.001272,-0.000488,0.0,0.0,0.0,0.0,0.0,0.0,0.0,0.0,0.0,-0.103,0.012,-9.612,0.0,0.0,0.0,0.0,0.0,0.0,0.0,0.0,0.0
1581113397648309318,435,1581113397648156881,,0.864032031948,-0.00303996847253,-0.499554878448,0.866268975464,0.0,0.0,0.0,0.0,0.0,0.0,0.0,0.0,0.0,0.000818,-0.000267,-0.000201,0.0,0.0,0.0,0.0,0.0,0.0,0.0,0.0,0.0,-0.105,0.024,-9.575,0.0,0.0,0.0,0.0,0.0,0.0,0.0,0.0,0.0
1581113397673916273,436,1581113397673806905,,0.864040818397,-0.00305521756238,-0.499524626067,0.86628632998,0.0,0.0,0.0,0.0,0.0,0.0,0.0,0.0,0.0,-0.000659,-0.000226,-0.000872,0.0,0.0,0.0,0.0,0.0,0.0,0.0,0.0,0.0,-0.084,0.036,-9.576,0.0,0.0,0.0,0.0,0.0,0.0,0.0,0.0,0.0
1581113397698867192,437,1581113397698764085,,0.864049604583,-0.00306287479882,-0.499501939724,0.866299365752,0.0,0.0,0.0,0.0,0.0,0.0,0.0,0.0,0.0,-0.000811,0.000398,0.002429,0.0,0.0,0.0,0.0,0.0,0.0,0.0,0.0,0.0,-0.079,0.038,-9.569,0.0,0.0,0.0,0.0,0.0,0.0,0.0,0.0,0.0
1581113397724871720,438,1581113397724764108,,0.864058364843,-0.00303903693476,-0.4995020065,0.866299383686,0.0,0.0,0.0,0.0,0.0,0.0,0.0,0.0,0.0,0.000265,-0.000305,-0.00018,0.0,0.0,0.0,0.0,0.0,0.0,0.0,0.0,0.0,-0.068,0.038,-9.592,0.0,0.0,0.0,0.0,0.0,0.0,0.0,0.0,0.0
1581113397748611423,439,1581113397748464107,,0.864058377707,-0.00305098835979,-0.499494413309,0.866303733691,0.0,0.0,0.0,0.0,0.0,0.0,0.0,0.0,0.0,0.000527,9.7e-05,0.000577,0.0,0.0,0.0,0.0,0.0,0.0,0.0,0.0,0.0,-0.071,0.043,-9.601,0.0,0.0,0.0,0.0,0.0,0.0,0.0,0.0,0.0
1581113397773310472,440,1581113397773158073,,0.864062744775,-0.00304989585495,-0.499479339906,0.866312344696,0.0,0.0,0.0,0.0,0.0,0.0,0.0,0.0,0.0,0.000604,-0.00053,-0.00015,0.0,0.0,0.0,0.0,0.0,0.0,0.0,0.0,0.0,-0.083,0.017,-9.579,0.0,0.0,0.0,0.0,0.0,0.0,0.0,0.0,0.0
1581113397798455073,441,1581113397798347949,,0.864071556098,-0.00305867847337,-0.499464166519,0.866321127315,0.0,0.0,0.0,0.0,0.0,0.0,0.0,0.0,0.0,-0.000462,-0.001294,0.000219,0.0,0.0,0.0,0.0,0.0,0.0,0.0,0.0,0.0,-0.063,0.04,-9.613,0.0,0.0,0.0,0.0,0.0,0.0,0.0,0.0,0.0
1581113397823890492,442,1581113397823784112,,0.864058364843,-0.00306940744385,-0.499471739707,0.866316652812,0.0,0.0,0.0,0.0,0.0,0.0,0.0,0.0,0.0,-0.000321,-0.00096,-0.001265,0.0,0.0,0.0,0.0,0.0,0.0,0.0,0.0,0.0,-0.074,0.029,-9.639,0.0,0.0,0.0,0.0,0.0,0.0,0.0,0.0,0.0
1581113397848752707,443,1581113397848644971,,0.864080328498,-0.00306197787113,-0.499441506036,0.8663341288,0.0,0.0,0.0,0.0,0.0,0.0,0.0,0.0,0.0,-5.9e-05,0.000287,0.000367,0.0,0.0,0.0,0.0,0.0,0.0,0.0,0.0,0.0,-0.076,0.009,-9.577,0.0,0.0,0.0,0.0,0.0,0.0,0.0,0.0,0.0
1581113397873375145,444,1581113397873269081,,0.864071556098,-0.00307386397388,-0.499449032613,0.866329761293,0.0,0.0,0.0,0.0,0.0,0.0,0.0,0.0,0.0,0.000299,0.000923,0.00026,0.0,0.0,0.0,0.0,0.0,0.0,0.0,0.0,0.0,-0.075,0.017,-9.623,0.0,0.0,0.0,0.0,0.0,0.0,0.0,0.0,0.0
1581113397898342919,445,1581113397898190975,,0.864067163367,-0.00307383136847,-0.499456592747,0.866325402745,0.0,0.0,0.0,0.0,0.0,0.0,0.0,0.0,0.0,-0.000676,0.00066,0.000225,0.0,0.0,0.0,0.0,0.0,0.0,0.0,0.0,0.0,-0.095,0.034,-9.579,0.0,0.0,0.0,0.0,0.0,0.0,0.0,0.0,0.0
1581113397924213178,446,1581113397924108028,,0.864075948763,-0.00307389657907,-0.499441472441,0.866334119775,0.0,0.0,0.0,0.0,0.0,0.0,0.0,0.0,0.0,0.00036,-0.001043,0.000633,0.0,0.0,0.0,0.0,0.0,0.0,0.0,0.0,0.0,-0.084,0.042,-9.625,0.0,0.0,0.0,0.0,0.0,0.0,0.0,0.0,0.0
1581113397948811624,447,1581113397948698043,,0.864075948763,-0.00308148948053,-0.499433905337,0.866338436499,0.0,0.0,0.0,0.0,0.0,0.0,0.0,0.0,0.0,-6.7e-05,-0.000397,0.000137,0.0,0.0,0.0,0.0,0.0,0.0,0.0,0.0,0.0,-0.078,0.026,-9.604,0.0,0.0,0.0,0.0,0.0,0.0,0.0,0.0,0.0
1581113397974487398,448,1581113397974360942,,0.864089126363,-0.00308158740807,-0.499411224479,0.866351511352,0.0,0.0,0.0,0.0,0.0,0.0,0.0,0.0,0.0,-0.001192,0.000277,6.7e-05,0.0,0.0,0.0,0.0,0.0,0.0,0.0,0.0,0.0,-0.075,0.007,-9.583,0.0,0.0,0.0,0.0,0.0,0.0,0.0,0.0,0.0
1581113397998519823,449,1581113397998399972,,0.864071568896,-0.00308581528642,-0.499441438637,0.866334110694,0.0,0.0,0.0,0.0,0.0,0.0,0.0,0.0,0.0,-0.000476,-0.000129,-0.001029,0.0,0.0,0.0,0.0,0.0,0.0,0.0,0.0,0.0,-0.092,0.026,-9.609,0.0,0.0,0.0,0.0,0.0,0.0,0.0,0.0,0.0
1581113398024321670,450,1581113398024219036,,0.864071568896,-0.00309340815964,-0.49943387143,0.86633842739,0.0,0.0,0.0,0.0,0.0,0.0,0.0,0.0,0.0,0.001489,-0.000228,-8.6e-05,0.0,0.0,0.0,0.0,0.0,0.0,0.0,0.0,0.0,-0.079,0.018,-9.577,0.0,0.0,0.0,0.0,0.0,0.0,0.0,0.0,0.0
