%time,field.header.seq,field.header.stamp,field.header.frame_id,field.orientation.x,field.orientation.y,field.orientation.z,field.orientation.w,field.orientation_covariance0,field.orientation_covariance1,field.orientation_covariance2,field.orientation_covariance3,field.orientation_covariance4,field.orientation_covariance5,field.orientation_covariance6,field.orientation_covariance7,field.orientation_covariance8,field.angular_velocity.x,field.angular_velocity.y,field.angular_velocity.z,field.angular_velocity_covariance0,field.angular_velocity_covariance1,field.angular_velocity_covariance2,field.angular_velocity_covariance3,field.angular_velocity_covariance4,field.angular_velocity_covariance5,field.angular_velocity_covariance6,field.angular_velocity_covariance7,field.angular_velocity_covariance8,field.linear_acceleration.x,field.linear_acceleration.y,field.linear_acceleration.z,field.linear_acceleration_covariance0,field.linear_acceleration_covariance1,field.linear_acceleration_covariance2,field.linear_acceleration_covariance3,field.linear_acceleration_covariance4,field.linear_acceleration_covariance5,field.linear_acceleration_covariance6,field.linear_acceleration_covariance7,field.linear_acceleration_covariance8
1580869115803982951,8,1580869115801449060,,0.14936823048,0.0194906391844,-0.99168114364,0.125233589485,0.0,0.0,0.0,0.0,0.0,0.0,0.0,0.0,0.0,-0.00038,0.000182,-0.000362,0.0,0.0,0.0,0.0,0.0,0.0,0.0,0.0,0.0,0.464,0.298,-9.606,0.0,0.0,0.0,0.0,0.0,0.0,0.0,0.0,0.0
1580869115826666338,9,1580869115826205968,,0.14936823048,0.0194906391844,-0.99168114364,0.125233589485,0.0,0.0,0.0,0.0,0.0,0.0,0.0,0.0,0.0,0.000506,0.001292,-0.000397,0.0,0.0,0.0,0.0,0.0,0.0,0.0,0.0,0.0,0.471,0.319,-9.565,0.0,0.0,0.0,0.0,0.0,0.0,0.0,0.0,0.0
1580869115852200088,10,1580869115851639986,,0.149385463974,0.0195005752227,-0.991679648385,0.12524255591,0.0,0.0,0.0,0.0,0.0,0.0,0.0,0.0,0.0,0.000358,-0.001048,0.00087,0.0,0.0,0.0,0.0,0.0,0.0,0.0,0.0,0.0,0.501,0.306,-9.586,0.0,0.0,0.0,0.0,0.0,0.0,0.0,0.0,0.0
1580869115876974924,11,1580869115876373052,,0.149419952368,0.0195100140293,-0.991675105772,0.125277368178,0.0,0.0,0.0,0.0,0.0,0.0,0.0,0.0,0.0,-0.000802,-0.00016,-0.000294,0.0,0.0,0.0,0.0,0.0,0.0,0.0,0.0,0.0,0.505,0.3,-9.615,0.0,0.0,0.0,0.0,0.0,0.0,0.0,0.0,0.0
1580869115902577657,12,1580869115902069091,,0.14943722887,0.0195035323471,-0.991674811315,0.12527740443,0.0,0.0,0.0,0.0,0.0,0.0,0.0,0.0,0.0,4.4e-05,-0.000355,-0.000676,0.0,0.0,0.0,0.0,0.0,0.0,0.0,0.0,0.0,0.497,0.314,-9.614,0.0,0.0,0.0,0.0,0.0,0.0,0.0,0.0,0.0
1580869115926763133,13,1580869115926270961,,0.149497620731,0.0195049067613,-0.991667156704,0.125337982163,0.0,0.0,0.0,0.0,0.0,0.0,0.0,0.0,0.0,-0.000223,-0.001347,0.000742,0.0,0.0,0.0,0.0,0.0,0.0,0.0,0.0,0.0,0.477,0.333,-9.611,0.0,0.0,0.0,0.0,0.0,0.0,0.0,0.0,0.0
1580869115952162580,14,1580869115951525926,,0.14951485385,0.019513062762,-0.991663937163,0.125364023963,0.0,0.0,0.0,0.0,0.0,0.0,0.0,0.0,0.0,-5.6e-05,-0.000214,0.001046,0.0,0.0,0.0,0.0,0.0,0.0,0.0,0.0,0.0,0.459,0.333,-9.626,0.0,0.0,0.0,0.0,0.0,0.0,0.0,0.0,0.0
1580869115977159484,15,1580869115976537942,,0.1495062265,0.0195128665111,-0.991665031133,0.125355370058,0.0,0.0,0.0,0.0,0.0,0.0,0.0,0.0,0.0,-0.001151,-0.000228,-0.000859,0.0,0.0,0.0,0.0,0.0,0.0,0.0,0.0,0.0,0.465,0.317,-9.582,0.0,0.0,0.0,0.0,0.0,0.0,0.0,0.0,0.0
1580869116001874998,16,1580869116001302957,,0.149471738573,0.0195034275438,-0.991669576494,0.125320558079,0.0,0.0,0.0,0.0,0.0,0.0,0.0,0.0,0.0,0.000698,0.003403,2.1e-05,0.0,0.0,0.0,0.0,0.0,0.0,0.0,0.0,0.0,0.481,0.296,-9.607,0.0,0.0,0.0,0.0,0.0,0.0,0.0,0.0,0.0
1580869116027177664,17,1580869116026592969,,0.14948034438,0.0195122777495,-0.991668312589,0.125329408285,0.0,0.0,0.0,0.0,0.0,0.0,0.0,0.0,0.0,-0.000106,0.000363,-0.000839,0.0,0.0,0.0,0.0,0.0,0.0,0.0,0.0,0.0,0.481,0.318,-9.608,0.0,0.0,0.0,0.0,0.0,0.0,0.0,0.0,0.0
1580869116051728192,18,1580869116051181077,,0.149532130116,0.0195056921081,-0.991662780979,0.125372597801,0.0,0.0,0.0,0.0,0.0,0.0,0.0,0.0,0.0,-7e-06,0.000438,0.000555,0.0,0.0,0.0,0.0,0.0,0.0,0.0,0.0,0.0,0.476,0.331,-9.594,0.0,0.0,0.0,0.0,0.0,0.0,0.0,0.0,0.0
1580869116077161576,19,1580869116076607942,,0.149532130116,0.0195056921081,-0.991662780979,0.125372597801,0.0,0.0,0.0,0.0,0.0,0.0,0.0,0.0,0.0,0.001104,-0.000608,-0.000304,0.0,0.0,0.0,0.0,0.0,0.0,0.0,0.0,0.0,0.474,0.294,-9.605,0.0,0.0,0.0,0.0,0.0,0.0,0.0,0.0,0.0
1580869116102079629,20,1580869116101486921,,0.149506248094,0.0195042126004,-0.991665201377,0.125355173801,0.0,0.0,0.0,0.0,0.0,0.0,0.0,0.0,0.0,0.000228,1.7e-05,-0.000492,0.0,0.0,0.0,0.0,0.0,0.0,0.0,0.0,0.0,0.482,0.335,-9.608,0.0,0.0,0.0,0.0,0.0,0.0,0.0,0.0,0.0
1580869116126896512,21,1580869116126277923,,0.149506248094,0.0195042126004,-0.991665201377,0.125355173801,0.0,0.0,0.0,0.0,0.0,0.0,0.0,0.0,0.0,-0.001049,-2.9e-05,0.000224,0.0,0.0,0.0,0.0,0.0,0.0,0.0,0.0,0.0,0.47,0.319,-9.615,0.0,0.0,0.0,0.0,0.0,0.0,0.0,0.0,0.0
1580869116152330517,22,1580869116151433944,,0.149549406329,0.0194965400234,-0.991659900959,0.12539824698,0.0,0.0,0.0,0.0,0.0,0.0,0.0,0.0,0.0,0.000312,-0.000318,-0.001032,0.0,0.0,0.0,0.0,0.0,0.0,0.0,0.0,0.0,0.481,0.316,-9.616,0.0,0.0,0.0,0.0,0.0,0.0,0.0,0.0,0.0
1580869116177109501,23,1580869116176521062,,0.149532151703,0.0194979287864,-0.991663812752,0.125363863679,0.0,0.0,0.0,0.0,0.0,0.0,0.0,0.0,0.0,-0.000243,2.7e-05,0.000797,0.0,0.0,0.0,0.0,0.0,0.0,0.0,0.0,0.0,0.467,0.324,-9.611,0.0,0.0,0.0,0.0,0.0,0.0,0.0,0.0,0.0
1580869116201894272,24,1580869116201210021,,0.149497620731,0.0195049067613,-0.991667156704,0.125337982163,0.0,0.0,0.0,0.0,0.0,0.0,0.0,0.0,0.0,-0.000264,-3.2e-05,-0.000466,0.0,0.0,0.0,0.0,0.0,0.0,0.0,0.0,0.0,0.481,0.312,-9.581,0.0,0.0,0.0,0.0,0.0,0.0,0.0,0.0,0.0
1580869116226478707,25,1580869116226366996,,0.149489014937,0.0194969466663,-0.991669281838,0.125320594063,0.0,0.0,0.0,0.0,0.0,0.0,0.0,0.0,0.0,-5.7e-05,0.000798,-0.0002,0.0,0.0,0.0,0.0,0.0,0.0,0.0,0.0,0.0,0.481,0.313,-9.581,0.0,0.0,0.0,0.0,0.0,0.0,0.0,0.0,0.0
1580869116251950247,26,1580869116251337051,,0.149488993356,0.0195064906503,-0.991669972719,0.125312252727,0.0,0.0,0.0,0.0,0.0,0.0,0.0,0.0,0.0,-0.000246,0.000211,4.3e-05,0.0,0.0,0.0,0.0,0.0,0.0,0.0,0.0,0.0,0.481,0.32,-9.591,0.0,0.0,0.0,0.0,0.0,0.0,0.0,0.0,0.0
1580869116277004352,27,1580869116276505947,,0.149489014937,0.0194996162948,-0.9916718646,0.12529498051,0.0,0.0,0.0,0.0,0.0,0.0,0.0,0.0,0.0,-0.000509,0.000544,-0.000222,0.0,0.0,0.0,0.0,0.0,0.0,0.0,0.0,0.0,0.468,0.324,-9.602,0.0,0.0,0.0,0.0,0.0,0.0,0.0,0.0,0.0
1580869116301848710,28,1580869116301287889,,0.14945450532,0.0194979402338,-0.991675377142,0.125268902451,0.0,0.0,0.0,0.0,0.0,0.0,0.0,0.0,0.0,0.000158,0.000102,0.000862,0.0,0.0,0.0,0.0,0.0,0.0,0.0,0.0,0.0,0.492,0.321,-9.619,0.0,0.0,0.0,0.0,0.0,0.0,0.0,0.0,0.0
1580869116326832115,29,1580869116326304912,,0.149428622988,0.0194982396471,-0.991679516584,0.125234402489,0.0,0.0,0.0,0.0,0.0,0.0,0.0,0.0,0.0,0.000106,0.001264,0.000111,0.0,0.0,0.0,0.0,0.0,0.0,0.0,0.0,0.0,0.475,0.322,-9.569,0.0,0.0,0.0,0.0,0.0,0.0,0.0,0.0,0.0
1580869116351559630,30,1580869116350945949,,0.149428644548,0.0194886964345,-0.991678826443,0.125242743811,0.0,0.0,0.0,0.0,0.0,0.0,0.0,0.0,0.0,0.000988,0.000358,-0.000904,0.0,0.0,0.0,0.0,0.0,0.0,0.0,0.0,0.0,0.46,0.324,-9.616,0.0,0.0,0.0,0.0,0.0,0.0,0.0,0.0,0.0
1580869116376495636,31,1580869116375965118,,0.149428666098,0.0194800424034,-0.991678996476,0.125242547205,0.0,0.0,0.0,0.0,0.0,0.0,0.0,0.0,0.0,0.000841,0.001192,0.000603,0.0,0.0,0.0,0.0,0.0,0.0,0.0,0.0,0.0,0.473,0.332,-9.583,0.0,0.0,0.0,0.0,0.0,0.0,0.0,0.0,0.0
1580869116401635686,32,1580869116401077985,,0.149428666098,0.0194800424034,-0.991678996476,0.125242547205,0.0,0.0,0.0,0.0,0.0,0.0,0.0,0.0,0.0,0.000434,-0.000241,0.002186,0.0,0.0,0.0,0.0,0.0,0.0,0.0,0.0,0.0,0.486,0.332,-9.592,0.0,0.0,0.0,0.0,0.0,0.0,0.0,0.0,0.0
1580869116426689673,33,1580869116426122903,,0.149445921002,0.0194804356229,-0.99167681043,0.125259855249,0.0,0.0,0.0,0.0,0.0,0.0,0.0,0.0,0.0,-0.000645,0.001291,-0.001061,0.0,0.0,0.0,0.0,0.0,0.0,0.0,0.0,0.0,0.475,0.304,-9.593,0.0,0.0,0.0,0.0,0.0,0.0,0.0,0.0,0.0
1580869116451567572,34,1580869116450978040,,0.149428666098,0.0194800424034,-0.991678996476,0.125242547205,0.0,0.0,0.0,0.0,0.0,0.0,0.0,0.0,0.0,-0.000298,-0.000549,-0.000441,0.0,0.0,0.0,0.0,0.0,0.0,0.0,0.0,0.0,0.466,0.325,-9.611,0.0,0.0,0.0,0.0,0.0,0.0,0.0,0.0,0.0
1580869116476628733,35,1580869116476161003,,0.149437272005,0.0194880036288,-0.991676872975,0.12525993581,0.0,0.0,0.0,0.0,0.0,0.0,0.0,0.0,0.0,-0.000488,0.001039,-0.000406,0.0,0.0,0.0,0.0,0.0,0.0,0.0,0.0,0.0,0.453,0.309,-9.577,0.0,0.0,0.0,0.0,0.0,0.0,0.0,0.0,0.0
1580869116502071031,36,1580869116501045942,,0.149420038628,0.0194789565464,-0.991679229046,0.125242431233,0.0,0.0,0.0,0.0,0.0,0.0,0.0,0.0,0.0,0.001646,-0.000224,-0.000352,0.0,0.0,0.0,0.0,0.0,0.0,0.0,0.0,0.0,0.487,0.309,-9.567,0.0,0.0,0.0,0.0,0.0,0.0,0.0,0.0,0.0
1580869116526971057,37,1580869116526093959,,0.149428666098,0.0194809315715,-0.991679856742,0.125234009132,0.0,0.0,0.0,0.0,0.0,0.0,0.0,0.0,0.0,0.000586,0.000302,0.000169,0.0,0.0,0.0,0.0,0.0,0.0,0.0,0.0,0.0,0.459,0.316,-9.609,0.0,0.0,0.0,0.0,0.0,0.0,0.0,0.0,0.0
1580869116551809421,38,1580869116551258087,,0.149454548438,0.0194824108745,-0.991677438123,0.125251433142,0.0,0.0,0.0,0.0,0.0,0.0,0.0,0.0,0.0,0.001132,0.000239,-0.000932,0.0,0.0,0.0,0.0,0.0,0.0,0.0,0.0,0.0,0.466,0.313,-9.605,0.0,0.0,0.0,0.0,0.0,0.0,0.0,0.0,0.0
1580869116576496886,39,1580869116575923919,,0.149463154307,0.0194912616425,-0.991676175005,0.12526028391,0.0,0.0,0.0,0.0,0.0,0.0,0.0,0.0,0.0,0.000336,0.000463,0.000413,0.0,0.0,0.0,0.0,0.0,0.0,0.0,0.0,0.0,0.476,0.331,-9.588,0.0,0.0,0.0,0.0,0.0,0.0,0.0,0.0,0.0
1580869116601658541,40,1580869116600994110,,0.149506291249,0.0194913556581,-0.991669847771,0.125312091769,0.0,0.0,0.0,0.0,0.0,0.0,0.0,0.0,0.0,-0.000437,-0.000165,-0.000736,0.0,0.0,0.0,0.0,0.0,0.0,0.0,0.0,0.0,0.479,0.314,-9.597,0.0,0.0,0.0,0.0,0.0,0.0,0.0,0.0,0.0
1580869116626227398,41,1580869116625751972,,0.149523545947,0.0194899687865,-0.991665938207,0.125346475465,0.0,0.0,0.0,0.0,0.0,0.0,0.0,0.0,0.0,-0.000372,-0.000365,-0.000801,0.0,0.0,0.0,0.0,0.0,0.0,0.0,0.0,0.0,0.467,0.301,-9.577,0.0,0.0,0.0,0.0,0.0,0.0,0.0,0.0,0.0
1580869116651912722,42,1580869116651186943,,0.149532216395,0.0194728574745,-0.991665184332,0.125354736346,0.0,0.0,0.0,0.0,0.0,0.0,0.0,0.0,0.0,0.000488,-0.000762,0.000114,0.0,0.0,0.0,0.0,0.0,0.0,0.0,0.0,0.0,0.456,0.313,-9.598,0.0,0.0,0.0,0.0,0.0,0.0,0.0,0.0,0.0
1580869116676834424,43,1580869116676024913,,0.149532216395,0.0194728574745,-0.991665184332,0.125354736346,0.0,0.0,0.0,0.0,0.0,0.0,0.0,0.0,0.0,0.000123,0.000117,0.000258,0.0,0.0,0.0,0.0,0.0,0.0,0.0,0.0,0.0,0.479,0.312,-9.576,0.0,0.0,0.0,0.0,0.0,0.0,0.0,0.0,0.0
1580869116702122603,44,1580869116701606988,,0.149506355897,0.0194627237952,-0.991667774411,0.125337116163,0.0,0.0,0.0,0.0,0.0,0.0,0.0,0.0,0.0,-0.001539,-0.001411,-0.000578,0.0,0.0,0.0,0.0,0.0,0.0,0.0,0.0,0.0,0.478,0.32,-9.622,0.0,0.0,0.0,0.0,0.0,0.0,0.0,0.0,0.0
1580869116726512463,45,1580869116725909948,,0.149497728527,0.0194634174086,-0.991669729322,0.125319924088,0.0,0.0,0.0,0.0,0.0,0.0,0.0,0.0,0.0,5.4e-05,-0.00015,-0.000121,0.0,0.0,0.0,0.0,0.0,0.0,0.0,0.0,0.0,0.484,0.318,-9.585,0.0,0.0,0.0,0.0,0.0,0.0,0.0,0.0,0.0
1580869116751419501,46,1580869116750824928,,0.149471824818,0.0194705919029,-0.991671979023,0.125302696815,0.0,0.0,0.0,0.0,0.0,0.0,0.0,0.0,0.0,0.001183,-0.000442,-0.000787,0.0,0.0,0.0,0.0,0.0,0.0,0.0,0.0,0.0,0.465,0.33,-9.585,0.0,0.0,0.0,0.0,0.0,0.0,0.0,0.0,0.0
1580869116776558740,47,1580869116775897026,,0.149471803274,0.0194792458727,-0.991671809072,0.12530289327,0.0,0.0,0.0,0.0,0.0,0.0,0.0,0.0,0.0,-0.000527,-0.000533,-0.000241,0.0,0.0,0.0,0.0,0.0,0.0,0.0,0.0,0.0,0.478,0.313,-9.587,0.0,0.0,0.0,0.0,0.0,0.0,0.0,0.0,0.0
1580869116801033702,48,1580869116800559043,,0.149489058065,0.0194805287844,-0.991670483058,0.125311663199,0.0,0.0,0.0,0.0,0.0,0.0,0.0,0.0,0.0,-0.000802,-0.000529,0.000213,0.0,0.0,0.0,0.0,0.0,0.0,0.0,0.0,0.0,0.467,0.331,-9.609,0.0,0.0,0.0,0.0,0.0,0.0,0.0,0.0,0.0
1580869116826324622,49,1580869116825762033,,0.149489036507,0.0194900726099,-0.991671173949,0.12530332179,0.0,0.0,0.0,0.0,0.0,0.0,0.0,0.0,0.0,-0.000143,-0.000347,-8.3e-05,0.0,0.0,0.0,0.0,0.0,0.0,0.0,0.0,0.0,0.49,0.299,-9.599,0.0,0.0,0.0,0.0,0.0,0.0,0.0,0.0,0.0
1580869116851687305,50,1580869116851031064,,0.149471781718,0.0194896794243,-0.991673360753,0.125286013843,0.0,0.0,0.0,0.0,0.0,0.0,0.0,0.0,0.0,3e-05,-0.000451,0.000476,0.0,0.0,0.0,0.0,0.0,0.0,0.0,0.0,0.0,0.484,0.321,-9.604,0.0,0.0,0.0,0.0,0.0,0.0,0.0,0.0,0.0
1580869116876493181,51,1580869116875963926,,0.149454548438,0.0194797426773,-0.991674856656,0.125277047292,0.0,0.0,0.0,0.0,0.0,0.0,0.0,0.0,0.0,0.001327,-0.000187,0.00152,0.0,0.0,0.0,0.0,0.0,0.0,0.0,0.0,0.0,0.508,0.29,-9.572,0.0,0.0,0.0,0.0,0.0,0.0,0.0,0.0,0.0
1580869116901320518,52,1580869116900748968,,0.14950631281,0.0194827017054,-0.991670017827,0.125311895099,0.0,0.0,0.0,0.0,0.0,0.0,0.0,0.0,0.0,8.2e-05,-0.00013,0.000475,0.0,0.0,0.0,0.0,0.0,0.0,0.0,0.0,0.0,0.458,0.345,-9.621,0.0,0.0,0.0,0.0,0.0,0.0,0.0,0.0,0.0
1580869116925912889,53,1580869116925457954,,0.14950631281,0.0194818118443,-0.991669156891,0.125320433104,0.0,0.0,0.0,0.0,0.0,0.0,0.0,0.0,0.0,0.000355,-0.000234,0.000665,0.0,0.0,0.0,0.0,0.0,0.0,0.0,0.0,0.0,0.456,0.321,-9.629,0.0,0.0,0.0,0.0,0.0,0.0,0.0,0.0,0.0
1580869116951249036,54,1580869116950598955,,0.149489058065,0.0194814186456,-0.991671343994,0.125303125193,0.0,0.0,0.0,0.0,0.0,0.0,0.0,0.0,0.0,0.000317,0.000962,-9.4e-05,0.0,0.0,0.0,0.0,0.0,0.0,0.0,0.0,0.0,0.467,0.298,-9.578,0.0,0.0,0.0,0.0,0.0,0.0,0.0,0.0,0.0
1580869116976822243,55,1580869116976277112,,0.149489079611,0.0194727646798,-0.991671513964,0.125302928588,0.0,0.0,0.0,0.0,0.0,0.0,0.0,0.0,0.0,0.000569,4e-06,-0.000344,0.0,0.0,0.0,0.0,0.0,0.0,0.0,0.0,0.0,0.487,0.323,-9.604,0.0,0.0,0.0,0.0,0.0,0.0,0.0,0.0,0.0
1580869117001414651,56,1580869117000739097,,0.149471846351,0.0194637174698,-0.991673870652,0.125285424018,0.0,0.0,0.0,0.0,0.0,0.0,0.0,0.0,0.0,-0.000585,0.000564,0.00062,0.0,0.0,0.0,0.0,0.0,0.0,0.0,0.0,0.0,0.463,0.297,-9.62,0.0,0.0,0.0,0.0,0.0,0.0,0.0,0.0,0.0
1580869117026419377,57,1580869117025779008,,0.149454613028,0.0194537806836,-0.991675366295,0.12527645766,0.0,0.0,0.0,0.0,0.0,0.0,0.0,0.0,0.0,-0.000471,0.000342,-0.000439,0.0,0.0,0.0,0.0,0.0,0.0,0.0,0.0,0.0,0.484,0.305,-9.579,0.0,0.0,0.0,0.0,0.0,0.0,0.0,0.0,0.0
1580869117051514078,58,1580869117051012992,,0.149489144183,0.0194459129425,-0.991671162453,0.125310877027,0.0,0.0,0.0,0.0,0.0,0.0,0.0,0.0,0.0,0.000198,0.000271,-0.000655,0.0,0.0,0.0,0.0,0.0,0.0,0.0,0.0,0.0,0.449,0.318,-9.575,0.0,0.0,0.0,0.0,0.0,0.0,0.0,0.0,0.0
1580869117076404005,59,1580869117075839996,,0.149506398938,0.0194471960487,-0.99166983633,0.125319646637,0.0,0.0,0.0,0.0,0.0,0.0,0.0,0.0,0.0,0.000766,0.000283,-0.001201,0.0,0.0,0.0,0.0,0.0,0.0,0.0,0.0,0.0,0.478,0.309,-9.605,0.0,0.0,0.0,0.0,0.0,0.0,0.0,0.0,0.0
1580869117101865881,60,1580869117101382017,,0.149471910881,0.0194386450174,-0.991675240548,0.125276295686,0.0,0.0,0.0,0.0,0.0,0.0,0.0,0.0,0.0,-0.000442,-1.3e-05,0.000623,0.0,0.0,0.0,0.0,0.0,0.0,0.0,0.0,0.0,0.484,0.314,-9.605,0.0,0.0,0.0,0.0,0.0,0.0,0.0,0.0,0.0
1580869117127432733,61,1580869117126840114,,0.149480516788,0.01944838518,-0.99167483819,0.125276608052,0.0,0.0,0.0,0.0,0.0,0.0,0.0,0.0,0.0,-2.1e-05,0.000873,-0.000196,0.0,0.0,0.0,0.0,0.0,0.0,0.0,0.0,0.0,0.489,0.324,-9.585,0.0,0.0,0.0,0.0,0.0,0.0,0.0,0.0,0.0
1580869117152135127,62,1580869117151458978,,0.149497750052,0.0194574327417,-0.991672481789,0.12529411281,0.0,0.0,0.0,0.0,0.0,0.0,0.0,0.0,0.0,0.000736,-0.001027,-6.8e-05,0.0,0.0,0.0,0.0,0.0,0.0,0.0,0.0,0.0,0.462,0.321,-9.612,0.0,0.0,0.0,0.0,0.0,0.0,0.0,0.0,0.0
1580869117176297103,63,1580869117175493955,,0.149489079611,0.0194736543794,-0.991672374759,0.125294390491,0.0,0.0,0.0,0.0,0.0,0.0,0.0,0.0,0.0,-0.000404,0.000108,0.000176,0.0,0.0,0.0,0.0,0.0,0.0,0.0,0.0,0.0,0.481,0.305,-9.608,0.0,0.0,0.0,0.0,0.0,0.0,0.0,0.0,0.0
1580869117202130345,64,1580869117201478004,,0.149514961716,0.0194742444349,-0.991669094219,0.12532035237,0.0,0.0,0.0,0.0,0.0,0.0,0.0,0.0,0.0,-0.000463,0.000131,0.000315,0.0,0.0,0.0,0.0,0.0,0.0,0.0,0.0,0.0,0.454,0.323,-9.602,0.0,0.0,0.0,0.0,0.0,0.0,0.0,0.0,0.0
1580869117227426000,65,1580869117226949930,,0.14950631281,0.0194809218291,-0.991668295806,0.125328971095,0.0,0.0,0.0,0.0,0.0,0.0,0.0,0.0,0.0,-0.000797,0.000285,0.000475,0.0,0.0,0.0,0.0,0.0,0.0,0.0,0.0,0.0,0.476,0.321,-9.617,0.0,0.0,0.0,0.0,0.0,0.0,0.0,0.0,0.0
1580869117252236417,66,1580869117251615047,,0.149558055204,0.0194916452927,-0.99166242371,0.125372553192,0.0,0.0,0.0,0.0,0.0,0.0,0.0,0.0,0.0,-0.000565,-0.000211,0.000259,0.0,0.0,0.0,0.0,0.0,0.0,0.0,0.0,0.0,0.475,0.304,-9.584,0.0,0.0,0.0,0.0,0.0,0.0,0.0,0.0,0.0
1580869117276850921,67,1580869117276206970,,0.14956668249,0.0194918418714,-0.991661329591,0.125381207075,0.0,0.0,0.0,0.0,0.0,0.0,0.0,0.0,0.0,0.000489,0.000564,-0.00051,0.0,0.0,0.0,0.0,0.0,0.0,0.0,0.0,0.0,0.485,0.294,-9.602,0.0,0.0,0.0,0.0,0.0,0.0,0.0,0.0,0.0
1580869117302124919,68,1580869117301441907,,0.14956668249,0.0194918418714,-0.991661329591,0.125381207075,0.0,0.0,0.0,0.0,0.0,0.0,0.0,0.0,0.0,-0.001469,0.000132,-1.2e-05,0.0,0.0,0.0,0.0,0.0,0.0,0.0,0.0,0.0,0.481,0.306,-9.612,0.0,0.0,0.0,0.0,0.0,0.0,0.0,0.0,0.0
1580869117327226049,69,1580869117326580047,,0.14960119152,0.0194926281712,-0.991656952357,0.125415822509,0.0,0.0,0.0,0.0,0.0,0.0,0.0,0.0,0.0,0.000138,0.001192,-2.8e-05,0.0,0.0,0.0,0.0,0.0,0.0,0.0,0.0,0.0,0.476,0.3,-9.563,0.0,0.0,0.0,0.0,0.0,0.0,0.0,0.0,0.0
1580869117352469529,70,1580869117351866960,,0.149618445967,0.019493912182,-0.991655625184,0.125424592338,0.0,0.0,0.0,0.0,0.0,0.0,0.0,0.0,0.0,0.000228,0.000435,0.000194,0.0,0.0,0.0,0.0,0.0,0.0,0.0,0.0,0.0,0.47,0.33,-9.607,0.0,0.0,0.0,0.0,0.0,0.0,0.0,0.0,0.0
1580869117376933808,71,1580869117376353025,,0.149601213095,0.019483974331,-0.991657122424,0.125415625932,0.0,0.0,0.0,0.0,0.0,0.0,0.0,0.0,0.0,0.000526,-0.000801,0.000194,0.0,0.0,0.0,0.0,0.0,0.0,0.0,0.0,0.0,0.464,0.318,-9.609,0.0,0.0,0.0,0.0,0.0,0.0,0.0,0.0,0.0
1580869117402322050,72,1580869117401864051,,0.149601234657,0.0194735386258,-0.991655568442,0.1254325053,0.0,0.0,0.0,0.0,0.0,0.0,0.0,0.0,0.0,0.000998,-0.000423,1.8e-05,0.0,0.0,0.0,0.0,0.0,0.0,0.0,0.0,0.0,0.487,0.328,-9.578,0.0,0.0,0.0,0.0,0.0,0.0,0.0,0.0,0.0
1580869117426883391,73,1580869117426280021,,0.149601234657,0.0194753204894,-0.991657292416,0.125415429346,0.0,0.0,0.0,0.0,0.0,0.0,0.0,0.0,0.0,0.001135,0.000843,-0.000938,0.0,0.0,0.0,0.0,0.0,0.0,0.0,0.0,0.0,0.471,0.308,-9.566,0.0,0.0,0.0,0.0,0.0,0.0,0.0,0.0,0.0
1580869117452068496,74,1580869117451407909,,0.149558098329,0.0194743375154,-0.991662763753,0.125372160014,0.0,0.0,0.0,0.0,0.0,0.0,0.0,0.0,0.0,-0.000313,-0.00019,0.000383,0.0,0.0,0.0,0.0,0.0,0.0,0.0,0.0,0.0,0.478,0.321,-9.606,0.0,0.0,0.0,0.0,0.0,0.0,0.0,0.0,0.0
1580869117477070600,75,1580869117476536035,,0.149506334359,0.0194713777283,-0.991667604529,0.125337312621,0.0,0.0,0.0,0.0,0.0,0.0,0.0,0.0,0.0,0.000208,-0.001741,-6.4e-05,0.0,0.0,0.0,0.0,0.0,0.0,0.0,0.0,0.0,0.472,0.327,-9.58,0.0,0.0,0.0,0.0,0.0,0.0,0.0,0.0,0.0
1580869117501517901,76,1580869117501080989,,0.149532216395,0.0194719670818,-0.991664322866,0.125363274375,0.0,0.0,0.0,0.0,0.0,0.0,0.0,0.0,0.0,-0.000581,-0.000994,4.9e-05,0.0,0.0,0.0,0.0,0.0,0.0,0.0,0.0,0.0,0.501,0.315,-9.604,0.0,0.0,0.0,0.0,0.0,0.0,0.0,0.0,0.0
1580869117527056453,77,1580869117526480913,,0.149532237937,0.0194633131773,-0.991664492754,0.125363077921,0.0,0.0,0.0,0.0,0.0,0.0,0.0,0.0,0.0,0.000477,8e-06,-4.2e-05,0.0,0.0,0.0,0.0,0.0,0.0,0.0,0.0,0.0,0.492,0.302,-9.597,0.0,0.0,0.0,0.0,0.0,0.0,0.0,0.0,0.0
1580869117551844808,78,1580869117551076889,,0.149523589061,0.0194726609478,-0.99166627822,0.12534608243,0.0,0.0,0.0,0.0,0.0,0.0,0.0,0.0,0.0,-0.000576,0.001667,-0.000972,0.0,0.0,0.0,0.0,0.0,0.0,0.0,0.0,0.0,0.481,0.312,-9.596,0.0,0.0,0.0,0.0,0.0,0.0,0.0,0.0,0.0
1580869117577552262,79,1580869117576922893,,0.149549471029,0.0194732505234,-0.991662996328,0.125372044149,0.0,0.0,0.0,0.0,0.0,0.0,0.0,0.0,0.0,0.001056,0.000468,-0.000309,0.0,0.0,0.0,0.0,0.0,0.0,0.0,0.0,0.0,0.48,0.323,-9.602,0.0,0.0,0.0,0.0,0.0,0.0,0.0,0.0,0.0
1580869117601619238,80,1580869117601080894,,0.149506291249,0.0194886855901,-0.991667264539,0.125337705509,0.0,0.0,0.0,0.0,0.0,0.0,0.0,0.0,0.0,-0.000296,0.001393,-0.000161,0.0,0.0,0.0,0.0,0.0,0.0,0.0,0.0,0.0,0.489,0.314,-9.621,0.0,0.0,0.0,0.0,0.0,0.0,0.0,0.0,0.0
1580869117626791672,81,1580869117626197099,,0.149497663884,0.0194884891551,-0.991668358279,0.125329051574,0.0,0.0,0.0,0.0,0.0,0.0,0.0,0.0,0.0,-0.00037,-0.001393,0.0003,0.0,0.0,0.0,0.0,0.0,0.0,0.0,0.0,0.0,0.495,0.316,-9.567,0.0,0.0,0.0,0.0,0.0,0.0,0.0,0.0,0.0
1580869117651930913,82,1580869117651237010,,0.149471781718,0.0194887897097,-0.991672499974,0.125294551786,0.0,0.0,0.0,0.0,0.0,0.0,0.0,0.0,0.0,0.001074,0.00098,0.00063,0.0,0.0,0.0,0.0,0.0,0.0,0.0,0.0,0.0,0.462,0.317,-9.571,0.0,0.0,0.0,0.0,0.0,0.0,0.0,0.0,0.0
1580869117677155877,83,1580869117676687002,,0.149463154307,0.0194894828293,-0.991674454042,0.125277359856,0.0,0.0,0.0,0.0,0.0,0.0,0.0,0.0,0.0,-0.000885,0.000511,0.000678,0.0,0.0,0.0,0.0,0.0,0.0,0.0,0.0,0.0,0.465,0.317,-9.613,0.0,0.0,0.0,0.0,0.0,0.0,0.0,0.0,0.0
1580869117702104592,84,1580869117701373100,,0.149454548438,0.0194806322304,-0.991675717294,0.125268509257,0.0,0.0,0.0,0.0,0.0,0.0,0.0,0.0,0.0,-0.000639,0.000324,0.000712,0.0,0.0,0.0,0.0,0.0,0.0,0.0,0.0,0.0,0.47,0.325,-9.593,0.0,0.0,0.0,0.0,0.0,0.0,0.0,0.0,0.0
1580869117726635553,85,1580869117726038932,,0.149480430675,0.019481222044,-0.991672437432,0.125294471224,0.0,0.0,0.0,0.0,0.0,0.0,0.0,0.0,0.0,-0.000154,-0.00012,0.00024,0.0,0.0,0.0,0.0,0.0,0.0,0.0,0.0,0.0,0.509,0.311,-9.56,0.0,0.0,0.0,0.0,0.0,0.0,0.0,0.0,0.0
1580869117752595377,86,1580869117751760959,,0.14950631281,0.0194835914126,-0.991670878614,0.125303357079,0.0,0.0,0.0,0.0,0.0,0.0,0.0,0.0,0.0,-0.000504,0.000306,0.001436,0.0,0.0,0.0,0.0,0.0,0.0,0.0,0.0,0.0,0.47,0.289,-9.59,0.0,0.0,0.0,0.0,0.0,0.0,0.0,0.0,0.0
1580869117776954122,87,1580869117776334047,,0.149549427907,0.0194941190116,-0.99166610121,0.125338285584,0.0,0.0,0.0,0.0,0.0,0.0,0.0,0.0,0.0,-0.001022,0.001513,-0.000437,0.0,0.0,0.0,0.0,0.0,0.0,0.0,0.0,0.0,0.495,0.313,-9.591,0.0,0.0,0.0,0.0,0.0,0.0,0.0,0.0,0.0
1580869117801773268,88,1580869117801163911,,0.149558055204,0.0194952056915,-0.991665868318,0.12533840157,0.0,0.0,0.0,0.0,0.0,0.0,0.0,0.0,0.0,0.000171,4.8e-05,-0.000229,0.0,0.0,0.0,0.0,0.0,0.0,0.0,0.0,0.0,0.491,0.321,-9.595,0.0,0.0,0.0,0.0,0.0,0.0,0.0,0.0,0.0
1580869117826412238,89,1580869117825885057,,0.149558055204,0.0194960954061,-0.991666729097,0.125329863627,0.0,0.0,0.0,0.0,0.0,0.0,0.0,0.0,0.0,-0.000737,-0.000238,-0.000119,0.0,0.0,0.0,0.0,0.0,0.0,0.0,0.0,0.0,0.478,0.321,-9.601,0.0,0.0,0.0,0.0,0.0,0.0,0.0,0.0,0.0
1580869117852031629,90,1580869117851032018,,0.149532173278,0.0194946150224,-0.99166914933,0.125312439775,0.0,0.0,0.0,0.0,0.0,0.0,0.0,0.0,0.0,-0.000756,-0.0005,-4.3e-05,0.0,0.0,0.0,0.0,0.0,0.0,0.0,0.0,0.0,0.481,0.299,-9.586,0.0,0.0,0.0,0.0,0.0,0.0,0.0,0.0,0.0
1580869117876660072,91,1580869117876040935,,0.149540800598,0.0194948119136,-0.991668055735,0.125321093717,0.0,0.0,0.0,0.0,0.0,0.0,0.0,0.0,0.0,-0.000716,-0.000465,-0.000162,0.0,0.0,0.0,0.0,0.0,0.0,0.0,0.0,0.0,0.488,0.314,-9.598,0.0,0.0,0.0,0.0,0.0,0.0,0.0,0.0,0.0
1580869117901664538,92,1580869117901050090,,0.149532194842,0.0194859610758,-0.991669319415,0.125312242879,0.0,0.0,0.0,0.0,0.0,0.0,0.0,0.0,0.0,-0.000309,-0.000696,0.000701,0.0,0.0,0.0,0.0,0.0,0.0,0.0,0.0,0.0,0.468,0.307,-9.601,0.0,0.0,0.0,0.0,0.0,0.0,0.0,0.0,0.0
1580869117926605940,93,1580869117925987005,,0.149489058065,0.0194840873049,-0.991673925909,0.125277511088,0.0,0.0,0.0,0.0,0.0,0.0,0.0,0.0,0.0,0.000638,0.000196,-0.000814,0.0,0.0,0.0,0.0,0.0,0.0,0.0,0.0,0.0,0.491,0.306,-9.626,0.0,0.0,0.0,0.0,0.0,0.0,0.0,0.0,0.0
1580869117951473009,94,1580869117950881958,,0.149445921002,0.019482214113,-0.991678531111,0.125242779119,0.0,0.0,0.0,0.0,0.0,0.0,0.0,0.0,0.0,0.000263,-0.000576,-0.000184,0.0,0.0,0.0,0.0,0.0,0.0,0.0,0.0,0.0,0.491,0.332,-9.59,0.0,0.0,0.0,0.0,0.0,0.0,0.0,0.0,0.0
1580869117976512241,95,1580869117975923061,,0.149420038628,0.0194807348825,-0.991680949577,0.125225355088,0.0,0.0,0.0,0.0,0.0,0.0,0.0,0.0,0.0,0.000373,-0.000815,-0.00174,0.0,0.0,0.0,0.0,0.0,0.0,0.0,0.0,0.0,0.464,0.319,-9.572,0.0,0.0,0.0,0.0,0.0,0.0,0.0,0.0,0.0
1580869118001738398,96,1580869118001178979,,0.149411389601,0.0194883032282,-0.99168101219,0.125225435731,0.0,0.0,0.0,0.0,0.0,0.0,0.0,0.0,0.0,-0.000139,0.000127,0.001001,0.0,0.0,0.0,0.0,0.0,0.0,0.0,0.0,0.0,0.48,0.309,-9.581,0.0,0.0,0.0,0.0,0.0,0.0,0.0,0.0,0.0
1580869118026771141,97,1580869118026272058,,0.149437272005,0.019489782288,-0.991678593789,0.125242859848,0.0,0.0,0.0,0.0,0.0,0.0,0.0,0.0,0.0,0.000475,0.000732,-0.000843,0.0,0.0,0.0,0.0,0.0,0.0,0.0,0.0,0.0,0.465,0.336,-9.571,0.0,0.0,0.0,0.0,0.0,0.0,0.0,0.0,0.0
1580869118051793075,98,1580869118051127910,,0.149437293556,0.0194811282589,-0.991678763831,0.125242663166,0.0,0.0,0.0,0.0,0.0,0.0,0.0,0.0,0.0,0.000132,-0.000386,-0.000194,0.0,0.0,0.0,0.0,0.0,0.0,0.0,0.0,0.0,0.484,0.307,-9.616,0.0,0.0,0.0,0.0,0.0,0.0,0.0,0.0,0.0
1580869118076786189,99,1580869118076292037,,0.149463175861,0.0194834968026,-0.991677205326,0.125251549082,0.0,0.0,0.0,0.0,0.0,0.0,0.0,0.0,0.0,0.000382,0.00094,-0.000272,0.0,0.0,0.0,0.0,0.0,0.0,0.0,0.0,0.0,0.478,0.325,-9.6,0.0,0.0,0.0,0.0,0.0,0.0,0.0,0.0,0.0
1580869118101802286,100,1580869118101317882,,0.149437293556,0.01948201735,-0.991679624022,0.125234125086,0.0,0.0,0.0,0.0,0.0,0.0,0.0,0.0,0.0,-0.000612,-0.001048,-0.0003,0.0,0.0,0.0,0.0,0.0,0.0,0.0,0.0,0.0,0.504,0.31,-9.598,0.0,0.0,0.0,0.0,0.0,0.0,0.0,0.0,0.0
1580869118126397304,101,1580869118125792980,,0.149454569979,0.019472867618,-0.991676747754,0.125259774518,0.0,0.0,0.0,0.0,0.0,0.0,0.0,0.0,0.0,-0.000169,-0.000822,0.00042,0.0,0.0,0.0,0.0,0.0,0.0,0.0,0.0,0.0,0.455,0.324,-9.608,0.0,0.0,0.0,0.0,0.0,0.0,0.0,0.0,0.0
1580869118151461122,102,1580869118150779008,,0.149471803274,0.0194828043931,-0.991675251922,0.125268741159,0.0,0.0,0.0,0.0,0.0,0.0,0.0,0.0,0.0,-0.000988,-0.000147,-0.000601,0.0,0.0,0.0,0.0,0.0,0.0,0.0,0.0,0.0,0.501,0.316,-9.64,0.0,0.0,0.0,0.0,0.0,0.0,0.0,0.0,0.0
1580869118176768436,103,1580869118176271915,,0.149437293556,0.0194802390139,-0.991677903491,0.125251201232,0.0,0.0,0.0,0.0,0.0,0.0,0.0,0.0,0.0,0.000544,-0.000503,0.000911,0.0,0.0,0.0,0.0,0.0,0.0,0.0,0.0,0.0,0.476,0.337,-9.627,0.0,0.0,0.0,0.0,0.0,0.0,0.0,0.0,0.0
1580869118201538683,104,1580869118200907945,,0.149454548438,0.0194797426773,-0.991674856656,0.125277047292,0.0,0.0,0.0,0.0,0.0,0.0,0.0,0.0,0.0,0.000224,-0.000152,-0.000313,0.0,0.0,0.0,0.0,0.0,0.0,0.0,0.0,0.0,0.469,0.313,-9.59,0.0,0.0,0.0,0.0,0.0,0.0,0.0,0.0,0.0
1580869118226288306,105,1580869118225580930,,0.149428666098,0.0194791530814,-0.991678136062,0.125251085262,0.0,0.0,0.0,0.0,0.0,0.0,0.0,0.0,0.0,0.000506,-0.000491,-0.001121,0.0,0.0,0.0,0.0,0.0,0.0,0.0,0.0,0.0,0.479,0.315,-9.586,0.0,0.0,0.0,0.0,0.0,0.0,0.0,0.0,0.0
1580869118252404103,106,1580869118251779079,,0.149437272005,0.0194871140682,-0.991676012345,0.125268473768,0.0,0.0,0.0,0.0,0.0,0.0,0.0,0.0,0.0,-0.000243,-0.000587,0.001679,0.0,0.0,0.0,0.0,0.0,0.0,0.0,0.0,0.0,0.47,0.325,-9.588,0.0,0.0,0.0,0.0,0.0,0.0,0.0,0.0,0.0
1580869118276328238,107,1580869118275753974,,0.149428644548,0.0194869176213,-0.99167710548,0.125259819757,0.0,0.0,0.0,0.0,0.0,0.0,0.0,0.0,0.0,-0.000472,-0.000229,0.000963,0.0,0.0,0.0,0.0,0.0,0.0,0.0,0.0,0.0,0.485,0.305,-9.594,0.0,0.0,0.0,0.0,0.0,0.0,0.0,0.0,0.0
1580869118301580963,108,1580869118300955057,,0.149437250443,0.0194957680732,-0.99167584225,0.125268670209,0.0,0.0,0.0,0.0,0.0,0.0,0.0,0.0,0.0,-0.000733,0.001193,-0.000483,0.0,0.0,0.0,0.0,0.0,0.0,0.0,0.0,0.0,0.463,0.307,-9.577,0.0,0.0,0.0,0.0,0.0,0.0,0.0,0.0,0.0
1580869118326272935,109,1580869118325699090,,0.14945450532,0.0194943810372,-0.991671933758,0.125303053886,0.0,0.0,0.0,0.0,0.0,0.0,0.0,0.0,0.0,-0.000581,-0.001088,0.000128,0.0,0.0,0.0,0.0,0.0,0.0,0.0,0.0,0.0,0.455,0.313,-9.598,0.0,0.0,0.0,0.0,0.0,0.0,0.0,0.0,0.0
1580869118351828059,110,1580869118350820064,,0.149437272005,0.0194844444623,-0.991673429559,0.125294087552,0.0,0.0,0.0,0.0,0.0,0.0,0.0,0.0,0.0,-0.000725,7e-06,0.000671,0.0,0.0,0.0,0.0,0.0,0.0,0.0,0.0,0.0,0.489,0.316,-9.585,0.0,0.0,0.0,0.0,0.0,0.0,0.0,0.0,0.0
1580869118376351093,111,1580869118375792980,,0.149402783655,0.0194758952748,-0.99167883332,0.125250737297,0.0,0.0,0.0,0.0,0.0,0.0,0.0,0.0,0.0,-0.000553,8.6e-05,7.8e-05,0.0,0.0,0.0,0.0,0.0,0.0,0.0,0.0,0.0,0.479,0.304,-9.608,0.0,0.0,0.0,0.0,0.0,0.0,0.0,0.0,0.0
1580869118403056780,112,1580869118402389049,,0.149376879569,0.0194839604036,-0.991681942045,0.12522497147,0.0,0.0,0.0,0.0,0.0,0.0,0.0,0.0,0.0,-0.000106,0.000516,0.000752,0.0,0.0,0.0,0.0,0.0,0.0,0.0,0.0,0.0,0.471,0.315,-9.621,0.0,0.0,0.0,0.0,0.0,0.0,0.0,0.0,0.0
1580869118426158654,113,1580869118425575971,,0.149368252032,0.0194846533528,-0.991683895134,0.12520777942,0.0,0.0,0.0,0.0,0.0,0.0,0.0,0.0,0.0,-0.000922,0.000182,-0.000654,0.0,0.0,0.0,0.0,0.0,0.0,0.0,0.0,0.0,0.476,0.324,-9.574,0.0,0.0,0.0,0.0,0.0,0.0,0.0,0.0,0.0
1580869118452606423,114,1580869118451612949,,0.149359624485,0.0194844569711,-0.99168498774,0.12519912534,0.0,0.0,0.0,0.0,0.0,0.0,0.0,0.0,0.0,0.001106,4.8e-05,-0.000426,0.0,0.0,0.0,0.0,0.0,0.0,0.0,0.0,0.0,0.451,0.314,-9.596,0.0,0.0,0.0,0.0,0.0,0.0,0.0,0.0,0.0
1580869118477049195,115,1580869118476478099,,0.149333741773,0.0194820897738,-0.991686544888,0.125190239067,0.0,0.0,0.0,0.0,0.0,0.0,0.0,0.0,0.0,0.000453,-0.001511,-0.000704,0.0,0.0,0.0,0.0,0.0,0.0,0.0,0.0,0.0,0.46,0.318,-9.614,0.0,0.0,0.0,0.0,0.0,0.0,0.0,0.0,0.0
1580869118502009386,116,1580869118501439094,,0.149307858959,0.0194806120468,-0.991688961912,0.125172814741,0.0,0.0,0.0,0.0,0.0,0.0,0.0,0.0,0.0,-0.000727,-4.9e-05,-0.001023,0.0,0.0,0.0,0.0,0.0,0.0,0.0,0.0,0.0,0.471,0.339,-9.634,0.0,0.0,0.0,0.0,0.0,0.0,0.0,0.0,0.0
1580869118527128899,117,1580869118526487112,,0.14929920979,0.0194890700132,-0.991689884177,0.125164356775,0.0,0.0,0.0,0.0,0.0,0.0,0.0,0.0,0.0,0.000193,0.00059,0.001106,0.0,0.0,0.0,0.0,0.0,0.0,0.0,0.0,0.0,0.472,0.323,-9.625,0.0,0.0,0.0,0.0,0.0,0.0,0.0,0.0,0.0
1580869118552106450,118,1580869118551469087,,0.14929920979,0.0194899589653,-0.991690744203,0.125155818834,0.0,0.0,0.0,0.0,0.0,0.0,0.0,0.0,0.0,-0.001104,0.000585,-0.000385,0.0,0.0,0.0,0.0,0.0,0.0,0.0,0.0,0.0,0.46,0.31,-9.59,0.0,0.0,0.0,0.0,0.0,0.0,0.0,0.0,0.0
1580869118577066055,119,1580869118576455116,,0.149281976043,0.0194809123495,-0.991693098474,0.125138314309,0.0,0.0,0.0,0.0,0.0,0.0,0.0,0.0,0.0,0.000477,0.000425,-5.4e-05,0.0,0.0,0.0,0.0,0.0,0.0,0.0,0.0,0.0,0.467,0.309,-9.602,0.0,0.0,0.0,0.0,0.0,0.0,0.0,0.0,0.0
1580869118602106313,120,1580869118601464033,,0.149247465329,0.0194792388878,-0.991696606434,0.125112235677,0.0,0.0,0.0,0.0,0.0,0.0,0.0,0.0,0.0,-0.001078,-9.3e-05,-5.9e-05,0.0,0.0,0.0,0.0,0.0,0.0,0.0,0.0,0.0,0.484,0.347,-9.6,0.0,0.0,0.0,0.0,0.0,0.0,0.0,0.0,0.0
1580869118626834325,121,1580869118626286983,,0.149264720709,0.0194805198628,-0.991695282399,0.12512100598,0.0,0.0,0.0,0.0,0.0,0.0,0.0,0.0,0.0,0.000241,0.000488,-7.4e-05,0.0,0.0,0.0,0.0,0.0,0.0,0.0,0.0,0.0,0.474,0.297,-9.583,0.0,0.0,0.0,0.0,0.0,0.0,0.0,0.0,0.0
1580869118652020734,122,1580869118651391983,,0.149273348381,0.0194816046663,-0.991695050136,0.125121122094,0.0,0.0,0.0,0.0,0.0,0.0,0.0,0.0,0.0,-0.001058,0.000484,-0.000804,0.0,0.0,0.0,0.0,0.0,0.0,0.0,0.0,0.0,0.49,0.314,-9.604,0.0,0.0,0.0,0.0,0.0,0.0,0.0,0.0,0.0
1580869118676807056,123,1580869118676270008,,0.149290603693,0.0194828858635,-0.991693725871,0.125129892363,0.0,0.0,0.0,0.0,0.0,0.0,0.0,0.0,0.0,-0.000218,0.000479,0.000265,0.0,0.0,0.0,0.0,0.0,0.0,0.0,0.0,0.0,0.475,0.321,-9.557,0.0,0.0,0.0,0.0,0.0,0.0,0.0,0.0,0.0
1580869118701986245,124,1580869118701404094,,0.149256049941,0.019499408668,-0.991697752946,0.125095668427,0.0,0.0,0.0,0.0,0.0,0.0,0.0,0.0,0.0,-0.000753,0.000454,-0.001504,0.0,0.0,0.0,0.0,0.0,0.0,0.0,0.0,0.0,0.486,0.327,-9.63,0.0,0.0,0.0,0.0,0.0,0.0,0.0,0.0,0.0
1580869118727172109,125,1580869118726646900,,0.149273283733,0.0195075671754,-0.991694539769,0.125121711012,0.0,0.0,0.0,0.0,0.0,0.0,0.0,0.0,0.0,0.000502,0.000155,5.5e-05,0.0,0.0,0.0,0.0,0.0,0.0,0.0,0.0,0.0,0.493,0.314,-9.598,0.0,0.0,0.0,0.0,0.0,0.0,0.0,0.0,0.0
1580869118752373672,126,1580869118751708984,,0.149247400691,0.0195060899425,-0.991696955693,0.125104286314,0.0,0.0,0.0,0.0,0.0,0.0,0.0,0.0,0.0,0.000947,-0.001079,0.000403,0.0,0.0,0.0,0.0,0.0,0.0,0.0,0.0,0.0,0.45,0.304,-9.603,0.0,0.0,0.0,0.0,0.0,0.0,0.0,0.0,0.0
1580869118777510700,127,1580869118776381969,,0.149221539101,0.0194968470604,-0.991700400755,0.125078127477,0.0,0.0,0.0,0.0,0.0,0.0,0.0,0.0,0.0,0.000434,0.000111,-0.000602,0.0,0.0,0.0,0.0,0.0,0.0,0.0,0.0,0.0,0.443,0.316,-9.586,0.0,0.0,0.0,0.0,0.0,0.0,0.0,0.0,0.0
1580869118801790719,128,1580869118801208972,,0.149212954433,0.0194784541929,-0.991700973071,0.125077618858,0.0,0.0,0.0,0.0,0.0,0.0,0.0,0.0,0.0,0.000108,0.000514,-0.00021,0.0,0.0,0.0,0.0,0.0,0.0,0.0,0.0,0.0,0.46,0.307,-9.603,0.0,0.0,0.0,0.0,0.0,0.0,0.0,0.0,0.0
1580869118827209430,129,1580869118826705932,,0.149221582174,0.0194777619634,-0.991699022012,0.125094811148,0.0,0.0,0.0,0.0,0.0,0.0,0.0,0.0,0.0,-0.001536,-0.000331,-0.000138,0.0,0.0,0.0,0.0,0.0,0.0,0.0,0.0,0.0,0.457,0.315,-9.615,0.0,0.0,0.0,0.0,0.0,0.0,0.0,0.0,0.0
1580869118851479994,130,1580869118851028919,,0.149238837622,0.0194781541569,-0.991696838545,0.125112119542,0.0,0.0,0.0,0.0,0.0,0.0,0.0,0.0,0.0,-0.000206,-0.000575,-0.001011,0.0,0.0,0.0,0.0,0.0,0.0,0.0,0.0,0.0,0.469,0.326,-9.613,0.0,0.0,0.0,0.0,0.0,0.0,0.0,0.0,0.0
1580869118876895320,131,1580869118876214027,,0.149212975951,0.0194689116477,-0.991700283569,0.125085960832,0.0,0.0,0.0,0.0,0.0,0.0,0.0,0.0,0.0,-0.000326,-0.000317,-9.9e-05,0.0,0.0,0.0,0.0,0.0,0.0,0.0,0.0,0.0,0.476,0.315,-9.597,0.0,0.0,0.0,0.0,0.0,0.0,0.0,0.0,0.0
1580869118901652522,132,1580869118901079893,,0.149281997571,0.0194722581939,-0.99169326844,0.125138118062,0.0,0.0,0.0,0.0,0.0,0.0,0.0,0.0,0.0,-0.000815,0.00162,0.001307,0.0,0.0,0.0,0.0,0.0,0.0,0.0,0.0,0.0,0.487,0.304,-9.594,0.0,0.0,0.0,0.0,0.0,0.0,0.0,0.0,0.0
1580869118927507206,133,1580869118926414966,,0.149333784833,0.019465670659,-0.991687744962,0.125181308425,0.0,0.0,0.0,0.0,0.0,0.0,0.0,0.0,0.0,-8.4e-05,-0.000251,-0.00132,0.0,0.0,0.0,0.0,0.0,0.0,0.0,0.0,0.0,0.46,0.31,-9.617,0.0,0.0,0.0,0.0,0.0,0.0,0.0,0.0,0.0
1580869118951654041,134,1580869118951064109,,0.149342412417,0.0194667559938,-0.991687512636,0.125181424363,0.0,0.0,0.0,0.0,0.0,0.0,0.0,0.0,0.0,-0.00101,0.00044,1.7e-05,0.0,0.0,0.0,0.0,0.0,0.0,0.0,0.0,0.0,0.477,0.328,-9.599,0.0,0.0,0.0,0.0,0.0,0.0,0.0,0.0,0.0
1580869118976822695,135,1580869118976187944,,0.149342412417,0.0194667559938,-0.991687512636,0.125181424363,0.0,0.0,0.0,0.0,0.0,0.0,0.0,0.0,0.0,0.001127,0.00103,8e-06,0.0,0.0,0.0,0.0,0.0,0.0,0.0,0.0,0.0,0.48,0.305,-9.607,0.0,0.0,0.0,0.0,0.0,0.0,0.0,0.0,0.0
1580869119001894683,136,1580869119001240968,,0.149359667552,0.0194671487999,-0.991685327657,0.125198732556,0.0,0.0,0.0,0.0,0.0,0.0,0.0,0.0,0.0,0.000564,-0.000382,-0.000652,0.0,0.0,0.0,0.0,0.0,0.0,0.0,0.0,0.0,0.481,0.308,-9.588,0.0,0.0,0.0,0.0,0.0,0.0,0.0,0.0,0.0
1580869119027121504,137,1580869119026660919,,0.14936831662,0.0194586911225,-0.991684404901,0.125207190234,0.0,0.0,0.0,0.0,0.0,0.0,0.0,0.0,0.0,0.001044,-0.000539,-0.000498,0.0,0.0,0.0,0.0,0.0,0.0,0.0,0.0,0.0,0.46,0.31,-9.64,0.0,0.0,0.0,0.0,0.0,0.0,0.0,0.0,0.0
1580869119052294181,138,1580869119051806926,,0.149342455434,0.0194494477786,-0.991687852244,0.125181031535,0.0,0.0,0.0,0.0,0.0,0.0,0.0,0.0,0.0,0.000627,0.000306,-0.000319,0.0,0.0,0.0,0.0,0.0,0.0,0.0,0.0,0.0,0.483,0.312,-9.605,0.0,0.0,0.0,0.0,0.0,0.0,0.0,0.0,0.0
1580869119076814785,139,1580869119076087951,,0.149333806346,0.0194570165501,-0.991687914795,0.125181112091,0.0,0.0,0.0,0.0,0.0,0.0,0.0,0.0,0.0,9e-06,-0.000652,0.001646,0.0,0.0,0.0,0.0,0.0,0.0,0.0,0.0,0.0,0.499,0.32,-9.623,0.0,0.0,0.0,0.0,0.0,0.0,0.0,0.0,0.0
1580869119101553586,140,1580869119100982904,,0.149299317386,0.0194466882751,-0.991691593669,0.125154837568,0.0,0.0,0.0,0.0,0.0,0.0,0.0,0.0,0.0,0.000155,-0.000818,-0.000778,0.0,0.0,0.0,0.0,0.0,0.0,0.0,0.0,0.0,0.444,0.297,-9.601,0.0,0.0,0.0,0.0,0.0,0.0,0.0,0.0,0.0
1580869119127027964,141,1580869119126430988,,0.149299317386,0.0194466882751,-0.991691593669,0.125154837568,0.0,0.0,0.0,0.0,0.0,0.0,0.0,0.0,0.0,9.5e-05,2.5e-05,9.9e-05,0.0,0.0,0.0,0.0,0.0,0.0,0.0,0.0,0.0,0.468,0.315,-9.584,0.0,0.0,0.0,0.0,0.0,0.0,0.0,0.0,0.0
1580869119152025249,142,1580869119151271104,,0.149299317386,0.0194466882751,-0.991691593669,0.125154837568,0.0,0.0,0.0,0.0,0.0,0.0,0.0,0.0,0.0,-0.000295,-0.001488,-0.000612,0.0,0.0,0.0,0.0,0.0,0.0,0.0,0.0,0.0,0.489,0.299,-9.576,0.0,0.0,0.0,0.0,0.0,0.0,0.0,0.0,0.0
1580869119176969279,143,1580869119175879955,,0.149299338871,0.0194389228856,-0.99169262326,0.125146102868,0.0,0.0,0.0,0.0,0.0,0.0,0.0,0.0,0.0,-9.4e-05,0.001476,0.000672,0.0,0.0,0.0,0.0,0.0,0.0,0.0,0.0,0.0,0.45,0.339,-9.633,0.0,0.0,0.0,0.0,0.0,0.0,0.0,0.0,0.0
1580869119202041253,144,1580869119201582908,,0.149273455902,0.0194383337883,-0.991695899237,0.125120140373,0.0,0.0,0.0,0.0,0.0,0.0,0.0,0.0,0.0,0.000607,0.00027,-0.000452,0.0,0.0,0.0,0.0,0.0,0.0,0.0,0.0,0.0,0.469,0.325,-9.575,0.0,0.0,0.0,0.0,0.0,0.0,0.0,0.0,0.0
1580869119226467187,145,1580869119225893020,,0.149299360345,0.0194302687341,-0.991692792859,0.1251459065,0.0,0.0,0.0,0.0,0.0,0.0,0.0,0.0,0.0,0.000558,-0.000598,0.000543,0.0,0.0,0.0,0.0,0.0,0.0,0.0,0.0,0.0,0.469,0.303,-9.616,0.0,0.0,0.0,0.0,0.0,0.0,0.0,0.0,0.0
1580869119251794605,146,1580869119251080036,,0.149325243216,0.0194299688702,-0.991688656051,0.125180407386,0.0,0.0,0.0,0.0,0.0,0.0,0.0,0.0,0.0,-0.000147,-0.000888,-0.000548,0.0,0.0,0.0,0.0,0.0,0.0,0.0,0.0,0.0,0.487,0.301,-9.595,0.0,0.0,0.0,0.0,0.0,0.0,0.0,0.0,0.0
1580869119277569886,147,1580869119276571989,,0.14930798798,0.0194313537749,-0.991692560574,0.125146022144,0.0,0.0,0.0,0.0,0.0,0.0,0.0,0.0,0.0,0.000709,-0.00049,-0.000739,0.0,0.0,0.0,0.0,0.0,0.0,0.0,0.0,0.0,0.476,0.321,-9.615,0.0,0.0,0.0,0.0,0.0,0.0,0.0,0.0,0.0
1580869119301842610,148,1580869119301301956,,0.149299360345,0.0194311573256,-0.991693652642,0.125137367989,0.0,0.0,0.0,0.0,0.0,0.0,0.0,0.0,0.0,0.000409,-0.000395,-0.000435,0.0,0.0,0.0,0.0,0.0,0.0,0.0,0.0,0.0,0.462,0.312,-9.604,0.0,0.0,0.0,0.0,0.0,0.0,0.0,0.0,0.0
1580869119326412940,149,1580869119325768947,,0.149264828223,0.0194390257105,-0.991697850556,0.125102947725,0.0,0.0,0.0,0.0,0.0,0.0,0.0,0.0,0.0,-0.000199,0.00015,0.000405,0.0,0.0,0.0,0.0,0.0,0.0,0.0,0.0,0.0,0.477,0.345,-9.628,0.0,0.0,0.0,0.0,0.0,0.0,0.0,0.0,0.0
1580869119352743484,150,1580869119352117061,,0.149230317393,0.0194373519299,-0.991701357689,0.125076869357,0.0,0.0,0.0,0.0,0.0,0.0,0.0,0.0,0.0,-0.000267,-0.000376,0.001674,0.0,0.0,0.0,0.0,0.0,0.0,0.0,0.0,0.0,0.482,0.322,-9.611,0.0,0.0,0.0,0.0,0.0,0.0,0.0,0.0,0.0
1580869119376480081,151,1580869119375890970,,0.149264785252,0.0194563341002,-0.99169751113,0.125103340599,0.0,0.0,0.0,0.0,0.0,0.0,0.0,0.0,0.0,-9.5e-05,-0.000766,0.000749,0.0,0.0,0.0,0.0,0.0,0.0,0.0,0.0,0.0,0.468,0.335,-9.606,0.0,0.0,0.0,0.0,0.0,0.0,0.0,0.0,0.0
1580869119404621516,152,1580869119403985023,,0.149273412928,0.0194574187558,-0.991697278746,0.125103456471,0.0,0.0,0.0,0.0,0.0,0.0,0.0,0.0,0.0,-0.000701,-0.001366,0.000197,0.0,0.0,0.0,0.0,0.0,0.0,0.0,0.0,0.0,0.497,0.315,-9.605,0.0,0.0,0.0,0.0,0.0,0.0,0.0,0.0,0.0
1580869119426427751,153,1580869119425843954,,0.149256157564,0.0194570257469,-0.991699462063,0.125086148069,0.0,0.0,0.0,0.0,0.0,0.0,0.0,0.0,0.0,-0.000506,-0.000507,-0.000362,0.0,0.0,0.0,0.0,0.0,0.0,0.0,0.0,0.0,0.456,0.331,-9.571,0.0,0.0,0.0,0.0,0.0,0.0,0.0,0.0,0.0
1580869119451944225,154,1580869119451397895,,0.149290668247,0.0194586999876,-0.991695954515,0.125112226518,0.0,0.0,0.0,0.0,0.0,0.0,0.0,0.0,0.0,0.000541,-0.00106,0.000795,0.0,0.0,0.0,0.0,0.0,0.0,0.0,0.0,0.0,0.481,0.314,-9.576,0.0,0.0,0.0,0.0,0.0,0.0,0.0,0.0,0.0
1580869119476460273,155,1580869119475848913,,0.14929929589,0.0194597847157,-0.99169572198,0.125112342369,0.0,0.0,0.0,0.0,0.0,0.0,0.0,0.0,0.0,-0.000543,0.000713,0.000894,0.0,0.0,0.0,0.0,0.0,0.0,0.0,0.0,0.0,0.486,0.326,-9.595,0.0,0.0,0.0,0.0,0.0,0.0,0.0,0.0,0.0
1580869119501727500,156,1580869119501228094,,0.149273391424,0.0194678489571,-0.991698827222,0.125086576445,0.0,0.0,0.0,0.0,0.0,0.0,0.0,0.0,0.0,-1.6e-05,-0.000799,-3.2e-05,0.0,0.0,0.0,0.0,0.0,0.0,0.0,0.0,0.0,0.487,0.342,-9.599,0.0,0.0,0.0,0.0,0.0,0.0,0.0,0.0,0.0
1580869119526379592,157,1580869119525835037,,0.149273391424,0.0194696243517,-0.991700544937,0.12506949986,0.0,0.0,0.0,0.0,0.0,0.0,0.0,0.0,0.0,-0.001003,-0.000267,-0.000693,0.0,0.0,0.0,0.0,0.0,0.0,0.0,0.0,0.0,0.495,0.328,-9.597,0.0,0.0,0.0,0.0,0.0,0.0,0.0,0.0,0.0
1580869119551437250,158,1580869119550724983,,0.149273369908,0.0194791660445,-0.991701233621,0.125061158419,0.0,0.0,0.0,0.0,0.0,0.0,0.0,0.0,0.0,-0.000499,-0.000116,2.8e-05,0.0,0.0,0.0,0.0,0.0,0.0,0.0,0.0,0.0,0.472,0.331,-9.62,0.0,0.0,0.0,0.0,0.0,0.0,0.0,0.0,0.0
1580869119576322573,159,1580869119575714111,,0.149256093024,0.019488313721,-0.991704104498,0.125035508625,0.0,0.0,0.0,0.0,0.0,0.0,0.0,0.0,0.0,-0.000731,0.001412,-0.000267,0.0,0.0,0.0,0.0,0.0,0.0,0.0,0.0,0.0,0.456,0.298,-9.597,0.0,0.0,0.0,0.0,0.0,0.0,0.0,0.0,0.0
1580869119601262906,160,1580869119600667953,,0.149238859144,0.0194774913911,-0.991704740147,0.125035079707,0.0,0.0,0.0,0.0,0.0,0.0,0.0,0.0,0.0,0.001136,-0.001996,0.000217,0.0,0.0,0.0,0.0,0.0,0.0,0.0,0.0,0.0,0.488,0.306,-9.631,0.0,0.0,0.0,0.0,0.0,0.0,0.0,0.0,0.0
1580869119626696626,161,1580869119625725984,,0.149221582174,0.0194857520672,-0.991706752262,0.125017967972,0.0,0.0,0.0,0.0,0.0,0.0,0.0,0.0,0.0,-0.000428,0.000302,0.000121,0.0,0.0,0.0,0.0,0.0,0.0,0.0,0.0,0.0,0.491,0.317,-9.556,0.0,0.0,0.0,0.0,0.0,0.0,0.0,0.0,0.0
1580869119651474324,162,1580869119650923967,,0.149212954433,0.0194855552751,-0.991707843212,0.125009313693,0.0,0.0,0.0,0.0,0.0,0.0,0.0,0.0,0.0,0.000891,0.000278,-0.001355,0.0,0.0,0.0,0.0,0.0,0.0,0.0,0.0,0.0,0.505,0.32,-9.571,0.0,0.0,0.0,0.0,0.0,0.0,0.0,0.0,0.0
1580869119676301320,163,1580869119675736904,,0.149230188371,0.0194954902252,-0.99170634939,0.125018280905,0.0,0.0,0.0,0.0,0.0,0.0,0.0,0.0,0.0,-0.000242,0.000525,0.000618,0.0,0.0,0.0,0.0,0.0,0.0,0.0,0.0,0.0,0.472,0.309,-9.625,0.0,0.0,0.0,0.0,0.0,0.0,0.0,0.0,0.0
1580869119702137257,164,1580869119701585054,,0.149247465329,0.0194881167809,-0.991705195601,0.125026854369,0.0,0.0,0.0,0.0,0.0,0.0,0.0,0.0,0.0,0.000382,0.000329,-0.000657,0.0,0.0,0.0,0.0,0.0,0.0,0.0,0.0,0.0,0.491,0.284,-9.619,0.0,0.0,0.0,0.0,0.0,0.0,0.0,0.0,0.0
1580869119727346476,165,1580869119726814031,,0.149264742234,0.0194807435063,-0.991704041605,0.125035427653,0.0,0.0,0.0,0.0,0.0,0.0,0.0,0.0,0.0,0.001428,-0.000502,0.001084,0.0,0.0,0.0,0.0,0.0,0.0,0.0,0.0,0.0,0.477,0.321,-9.59,0.0,0.0,0.0,0.0,0.0,0.0,0.0,0.0,0.0
1580869119752193531,166,1580869119751617908,,0.149247486852,0.0194803494543,-0.991706223734,0.125018119134,0.0,0.0,0.0,0.0,0.0,0.0,0.0,0.0,0.0,0.00027,-0.000568,-0.001251,0.0,0.0,0.0,0.0,0.0,0.0,0.0,0.0,0.0,0.494,0.311,-9.55,0.0,0.0,0.0,0.0,0.0,0.0,0.0,0.0,0.0
1580869119776296410,167,1580869119775628089,,0.149307858959,0.0194912701393,-0.991699273383,0.125070357623,0.0,0.0,0.0,0.0,0.0,0.0,0.0,0.0,0.0,0.000335,0.000856,-0.001108,0.0,0.0,0.0,0.0,0.0,0.0,0.0,0.0,0.0,0.494,0.311,-9.602,0.0,0.0,0.0,0.0,0.0,0.0,0.0,0.0,0.0
1580869119802443506,168,1580869119801649093,,0.14932511418,0.0194916643054,-0.991697090342,0.125087666021,0.0,0.0,0.0,0.0,0.0,0.0,0.0,0.0,0.0,-0.000844,-0.001091,0.00045,0.0,0.0,0.0,0.0,0.0,0.0,0.0,0.0,0.0,0.476,0.316,-9.602,0.0,0.0,0.0,0.0,0.0,0.0,0.0,0.0,0.0
1580869119827690603,169,1580869119826705932,,0.149351018464,0.0194827136768,-0.991693126429,0.125121969681,0.0,0.0,0.0,0.0,0.0,0.0,0.0,0.0,0.0,-0.00051,-0.000459,0.001101,0.0,0.0,0.0,0.0,0.0,0.0,0.0,0.0,0.0,0.488,0.342,-9.585,0.0,0.0,0.0,0.0,0.0,0.0,0.0,0.0,0.0
1580869119852295627,170,1580869119851651906,,0.149359624485,0.0194915648305,-0.991691864438,0.125130820835,0.0,0.0,0.0,0.0,0.0,0.0,0.0,0.0,0.0,2.4e-05,0.000714,-0.001764,0.0,0.0,0.0,0.0,0.0,0.0,0.0,0.0,0.0,0.471,0.334,-9.585,0.0,0.0,0.0,0.0,0.0,0.0,0.0,0.0,0.0
1580869119876979426,171,1580869119876380920,,0.149333741773,0.0194900861157,-0.991694281173,0.125113396498,0.0,0.0,0.0,0.0,0.0,0.0,0.0,0.0,0.0,0.000567,-0.0011,0.000686,0.0,0.0,0.0,0.0,0.0,0.0,0.0,0.0,0.0,0.466,0.319,-9.62,0.0,0.0,0.0,0.0,0.0,0.0,0.0,0.0,0.0
1580869119902269485,172,1580869119901669979,,0.149350996926,0.0194922555434,-0.991693815215,0.125113628547,0.0,0.0,0.0,0.0,0.0,0.0,0.0,0.0,0.0,-0.001755,0.001249,0.000651,0.0,0.0,0.0,0.0,0.0,0.0,0.0,0.0,0.0,0.499,0.312,-9.593,0.0,0.0,0.0,0.0,0.0,0.0,0.0,0.0,0.0
1580869119927343660,173,1580869119926740884,,0.149342369355,0.0194920584656,-0.991694906999,0.125104974382,0.0,0.0,0.0,0.0,0.0,0.0,0.0,0.0,0.0,0.000325,0.000174,-0.001484,0.0,0.0,0.0,0.0,0.0,0.0,0.0,0.0,0.0,0.496,0.331,-9.621,0.0,0.0,0.0,0.0,0.0,0.0,0.0,0.0,0.0
1580869119952462543,174,1580869119952002048,,0.149342390892,0.0194834042942,-0.991695077062,0.125104777298,0.0,0.0,0.0,0.0,0.0,0.0,0.0,0.0,0.0,0.002184,-7.9e-05,-0.000506,0.0,0.0,0.0,0.0,0.0,0.0,0.0,0.0,0.0,0.506,0.31,-9.605,0.0,0.0,0.0,0.0,0.0,0.0,0.0,0.0,0.0
1580869119977004233,175,1580869119976443052,,0.149342390892,0.0194834042942,-0.991695077062,0.125104777298,0.0,0.0,0.0,0.0,0.0,0.0,0.0,0.0,0.0,0.000249,0.000311,-0.000774,0.0,0.0,0.0,0.0,0.0,0.0,0.0,0.0,0.0,0.462,0.326,-9.601,0.0,0.0,0.0,0.0,0.0,0.0,0.0,0.0,0.0
1580869120001930905,176,1580869120001364946,,0.149333763309,0.0194832072053,-0.991696168769,0.125096123121,0.0,0.0,0.0,0.0,0.0,0.0,0.0,0.0,0.0,-0.000986,-0.000287,0.001372,0.0,0.0,0.0,0.0,0.0,0.0,0.0,0.0,0.0,0.496,0.322,-9.607,0.0,0.0,0.0,0.0,0.0,0.0,0.0,0.0,0.0
1580869120026892915,177,1580869120026333093,,0.149316486575,0.0194923544733,-0.991699040295,0.125070473644,0.0,0.0,0.0,0.0,0.0,0.0,0.0,0.0,0.0,-0.000209,0.000206,-0.000991,0.0,0.0,0.0,0.0,0.0,0.0,0.0,0.0,0.0,0.475,0.314,-9.635,0.0,0.0,0.0,0.0,0.0,0.0,0.0,0.0,0.0
1580869120052149672,178,1580869120051549911,,0.149273348381,0.0194895947701,-0.991702780386,0.125044278917,0.0,0.0,0.0,0.0,0.0,0.0,0.0,0.0,0.0,0.000555,-0.001838,0.001306,0.0,0.0,0.0,0.0,0.0,0.0,0.0,0.0,0.0,0.474,0.318,-9.593,0.0,0.0,0.0,0.0,0.0,0.0,0.0,0.0,0.0
1580869120077092409,179,1580869120076457023,,0.149273348381,0.0194895947701,-0.991702780386,0.125044278917,0.0,0.0,0.0,0.0,0.0,0.0,0.0,0.0,0.0,0.000531,0.000477,5.4e-05,0.0,0.0,0.0,0.0,0.0,0.0,0.0,0.0,0.0,0.48,0.319,-9.622,0.0,0.0,0.0,0.0,0.0,0.0,0.0,0.0,0.0
1580869120101782239,180,1580869120101216077,,0.149230209904,0.0194877228961,-0.99170737758,0.125009545829,0.0,0.0,0.0,0.0,0.0,0.0,0.0,0.0,0.0,0.000146,-0.000264,-4.4e-05,0.0,0.0,0.0,0.0,0.0,0.0,0.0,0.0,0.0,0.495,0.296,-9.585,0.0,0.0,0.0,0.0,0.0,0.0,0.0,0.0,0.0
1580869120127006579,181,1580869120126362085,,0.149212997458,0.0194709070245,-0.991710757038,0.124983304942,0.0,0.0,0.0,0.0,0.0,0.0,0.0,0.0,0.0,0.000563,0.00143,0.000255,0.0,0.0,0.0,0.0,0.0,0.0,0.0,0.0,0.0,0.484,0.317,-9.579,0.0,0.0,0.0,0.0,0.0,0.0,0.0,0.0,0.0
1580869120152095648,182,1580869120151499032,,0.149247529864,0.0194630409126,-0.991706563579,0.12501772506,0.0,0.0,0.0,0.0,0.0,0.0,0.0,0.0,0.0,0.001098,0.000977,-0.000121,0.0,0.0,0.0,0.0,0.0,0.0,0.0,0.0,0.0,0.487,0.326,-9.601,0.0,0.0,0.0,0.0,0.0,0.0,0.0,0.0,0.0
1580869120177472067,183,1580869120176354885,,0.149247551353,0.0194543866395,-0.991706733388,0.125017528008,0.0,0.0,0.0,0.0,0.0,0.0,0.0,0.0,0.0,-0.001392,0.000643,-0.000296,0.0,0.0,0.0,0.0,0.0,0.0,0.0,0.0,0.0,0.477,0.317,-9.58,0.0,0.0,0.0,0.0,0.0,0.0,0.0,0.0,0.0
1580869120202280514,184,1580869120201797008,,0.149282062087,0.0194560619178,-0.991703227126,0.125043606521,0.0,0.0,0.0,0.0,0.0,0.0,0.0,0.0,0.0,-0.001089,-0.000782,0.000152,0.0,0.0,0.0,0.0,0.0,0.0,0.0,0.0,0.0,0.478,0.325,-9.616,0.0,0.0,0.0,0.0,0.0,0.0,0.0,0.0,0.0
1580869120227118829,185,1580869120226625919,,0.149238923641,0.0194541895827,-0.991707824334,0.12500887373,0.0,0.0,0.0,0.0,0.0,0.0,0.0,0.0,0.0,0.000636,-0.000607,0.000495,0.0,0.0,0.0,0.0,0.0,0.0,0.0,0.0,0.0,0.482,0.314,-9.601,0.0,0.0,0.0,0.0,0.0,0.0,0.0,0.0,0.0
1580869120252159599,186,1580869120251332998,,0.149238902154,0.019463730554,-0.991708512423,0.125000532316,0.0,0.0,0.0,0.0,0.0,0.0,0.0,0.0,0.0,-0.000857,0.000603,-0.000487,0.0,0.0,0.0,0.0,0.0,0.0,0.0,0.0,0.0,0.458,0.324,-9.607,0.0,0.0,0.0,0.0,0.0,0.0,0.0,0.0,0.0
1580869120276810236,187,1580869120276282072,,0.149247529864,0.0194639276782,-0.99170742155,0.1250091866,0.0,0.0,0.0,0.0,0.0,0.0,0.0,0.0,0.0,0.000463,-0.00071,0.000374,0.0,0.0,0.0,0.0,0.0,0.0,0.0,0.0,0.0,0.465,0.317,-9.601,0.0,0.0,0.0,0.0,0.0,0.0,0.0,0.0,0.0
1580869120302298007,188,1580869120301836013,,0.149247551353,0.0194552733976,-0.991707591367,0.125008989472,0.0,0.0,0.0,0.0,0.0,0.0,0.0,0.0,0.0,0.000748,0.00172,0.000204,0.0,0.0,0.0,0.0,0.0,0.0,0.0,0.0,0.0,0.468,0.326,-9.608,0.0,0.0,0.0,0.0,0.0,0.0,0.0,0.0,0.0
1580869120327015465,189,1580869120326318025,,0.149221689657,0.0194460276813,-0.991711033491,0.124982829443,0.0,0.0,0.0,0.0,0.0,0.0,0.0,0.0,0.0,0.00144,-0.000555,6.7e-05,0.0,0.0,0.0,0.0,0.0,0.0,0.0,0.0,0.0,0.476,0.315,-9.576,0.0,0.0,0.0,0.0,0.0,0.0,0.0,0.0,0.0
1580869120352788633,190,1580869120351218938,,0.149221689657,0.0194460276813,-0.991711033491,0.124982829443,0.0,0.0,0.0,0.0,0.0,0.0,0.0,0.0,0.0,-6.5e-05,-0.000227,-0.000367,0.0,0.0,0.0,0.0,0.0,0.0,0.0,0.0,0.0,0.495,0.339,-9.584,0.0,0.0,0.0,0.0,0.0,0.0,0.0,0.0,0.0
1580869120377482145,191,1580869120376770019,,0.149238902154,0.0194663896958,-0.991711085219,0.124974916826,0.0,0.0,0.0,0.0,0.0,0.0,0.0,0.0,0.0,-0.000907,0.000399,-0.000638,0.0,0.0,0.0,0.0,0.0,0.0,0.0,0.0,0.0,0.468,0.322,-9.576,0.0,0.0,0.0,0.0,0.0,0.0,0.0,0.0,0.0
1580869120402226206,192,1580869120401639938,,0.149238902154,0.0194655034692,-0.99171022777,0.124983455338,0.0,0.0,0.0,0.0,0.0,0.0,0.0,0.0,0.0,-0.001085,0.000672,0.00015,0.0,0.0,0.0,0.0,0.0,0.0,0.0,0.0,0.0,0.475,0.331,-9.613,0.0,0.0,0.0,0.0,0.0,0.0,0.0,0.0,0.0
1580869120426624290,193,1580869120426058053,,0.149230252934,0.0194730741915,-0.991710290997,0.124983536731,0.0,0.0,0.0,0.0,0.0,0.0,0.0,0.0,0.0,0.000816,-0.000508,-0.000254,0.0,0.0,0.0,0.0,0.0,0.0,0.0,0.0,0.0,0.465,0.32,-9.618,0.0,0.0,0.0,0.0,0.0,0.0,0.0,0.0,0.0
1580869120451911137,194,1580869120451200962,,0.149221646698,0.0194642226817,-0.991711551542,0.124974685221,0.0,0.0,0.0,0.0,0.0,0.0,0.0,0.0,0.0,-8.7e-05,0.000641,0.000121,0.0,0.0,0.0,0.0,0.0,0.0,0.0,0.0,0.0,0.482,0.315,-9.604,0.0,0.0,0.0,0.0,0.0,0.0,0.0,0.0,0.0
1580869120476568517,195,1580869120476000070,,0.149187135651,0.0194625477775,-0.991715056076,0.124948606408,0.0,0.0,0.0,0.0,0.0,0.0,0.0,0.0,0.0,-0.00012,-0.000702,-0.000183,0.0,0.0,0.0,0.0,0.0,0.0,0.0,0.0,0.0,0.501,0.315,-9.57,0.0,0.0,0.0,0.0,0.0,0.0,0.0,0.0,0.0
1580869120501446949,196,1580869120500895977,,0.149230252934,0.0194721877264,-0.991709433332,0.124992075143,0.0,0.0,0.0,0.0,0.0,0.0,0.0,0.0,0.0,-0.000143,0.000319,-0.000147,0.0,0.0,0.0,0.0,0.0,0.0,0.0,0.0,0.0,0.484,0.323,-9.589,0.0,0.0,0.0,0.0,0.0,0.0,0.0,0.0,0.0
1580869120527438142,197,1580869120526624917,,0.149195698917,0.0194887079148,-0.991713455783,0.124957852104,0.0,0.0,0.0,0.0,0.0,0.0,0.0,0.0,0.0,-0.000101,0.000507,0.000133,0.0,0.0,0.0,0.0,0.0,0.0,0.0,0.0,0.0,0.473,0.325,-9.582,0.0,0.0,0.0,0.0,0.0,0.0,0.0,0.0,0.0
1580869120551860116,198,1580869120551299095,,0.149161209259,0.0194774929413,-0.991716272487,0.124940114329,0.0,0.0,0.0,0.0,0.0,0.0,0.0,0.0,0.0,-0.000843,0.000346,-0.000773,0.0,0.0,0.0,0.0,0.0,0.0,0.0,0.0,0.0,0.484,0.286,-9.604,0.0,0.0,0.0,0.0,0.0,0.0,0.0,0.0,0.0
1580869120576882381,199,1580869120576360940,,0.149195720432,0.019479167263,-0.991712768308,0.124966193346,0.0,0.0,0.0,0.0,0.0,0.0,0.0,0.0,0.0,0.000806,0.000181,-0.000273,0.0,0.0,0.0,0.0,0.0,0.0,0.0,0.0,0.0,0.473,0.333,-9.557,0.0,0.0,0.0,0.0,0.0,0.0,0.0,0.0,0.0
1580869120601433287,200,1580869120600866079,,0.149187092656,0.0194798564675,-0.99171471624,0.124949000657,0.0,0.0,0.0,0.0,0.0,0.0,0.0,0.0,0.0,-0.001198,0.000573,0.000921,0.0,0.0,0.0,0.0,0.0,0.0,0.0,0.0,0.0,0.487,0.34,-9.603,0.0,0.0,0.0,0.0,0.0,0.0,0.0,0.0,0.0
1580869120627245820,201,1580869120626620054,,0.149204305152,0.0194984455967,-0.99171305259,0.124958165326,0.0,0.0,0.0,0.0,0.0,0.0,0.0,0.0,0.0,-0.00126,0.000725,-0.000112,0.0,0.0,0.0,0.0,0.0,0.0,0.0,0.0,0.0,0.477,0.314,-9.579,0.0,0.0,0.0,0.0,0.0,0.0,0.0,0.0,0.0
1580869120651220060,202,1580869120650748968,,0.14919567739,0.0194982484261,-0.991714143018,0.124949510992,0.0,0.0,0.0,0.0,0.0,0.0,0.0,0.0,0.0,0.000605,-0.000204,-0.000439,0.0,0.0,0.0,0.0,0.0,0.0,0.0,0.0,0.0,0.478,0.328,-9.601,0.0,0.0,0.0,0.0,0.0,0.0,0.0,0.0,0.0
1580869120678089269,203,1580869120677580118,,0.149221539101,0.0195074942426,-0.991710701311,0.124975671127,0.0,0.0,0.0,0.0,0.0,0.0,0.0,0.0,0.0,0.000608,0.000333,-0.000126,0.0,0.0,0.0,0.0,0.0,0.0,0.0,0.0,0.0,0.493,0.292,-9.647,0.0,0.0,0.0,0.0,0.0,0.0,0.0,0.0,0.0
1580869120701423028,204,1580869120700823068,,0.149195655851,0.0195077887968,-0.991714830014,0.12494117001,0.0,0.0,0.0,0.0,0.0,0.0,0.0,0.0,0.0,0.000963,0.000472,-0.00045,0.0,0.0,0.0,0.0,0.0,0.0,0.0,0.0,0.0,0.487,0.323,-9.613,0.0,0.0,0.0,0.0,0.0,0.0,0.0,0.0,0.0
1580869120726905068,205,1580869120725908041,,0.149204283612,0.0195088719908,-0.991714596772,0.124941286193,0.0,0.0,0.0,0.0,0.0,0.0,0.0,0.0,0.0,0.000986,-0.000131,0.000408,0.0,0.0,0.0,0.0,0.0,0.0,0.0,0.0,0.0,0.451,0.305,-9.592,0.0,0.0,0.0,0.0,0.0,0.0,0.0,0.0,0.0
1580869120751880800,206,1580869120751216888,,0.14919567739,0.0194991344515,-0.991715000214,0.124940972766,0.0,0.0,0.0,0.0,0.0,0.0,0.0,0.0,0.0,-0.000514,-0.000666,0.000141,0.0,0.0,0.0,0.0,0.0,0.0,0.0,0.0,0.0,0.458,0.305,-9.584,0.0,0.0,0.0,0.0,0.0,0.0,0.0,0.0,0.0
1580869120776782029,207,1580869120775948047,,0.149221582174,0.0194892992197,-0.991710184054,0.124983815059,0.0,0.0,0.0,0.0,0.0,0.0,0.0,0.0,0.0,0.000788,0.000352,0.000806,0.0,0.0,0.0,0.0,0.0,0.0,0.0,0.0,0.0,0.512,0.295,-9.618,0.0,0.0,0.0,0.0,0.0,0.0,0.0,0.0,0.0
1580869120801846678,208,1580869120801352977,,0.149212954433,0.0194899884456,-0.991712132207,0.124966622477,0.0,0.0,0.0,0.0,0.0,0.0,0.0,0.0,0.0,-0.001088,-0.000519,-0.000317,0.0,0.0,0.0,0.0,0.0,0.0,0.0,0.0,0.0,0.464,0.333,-9.594,0.0,0.0,0.0,0.0,0.0,0.0,0.0,0.0,0.0
1580869120826945646,209,1580869120825972080,,0.149221560643,0.0194997261899,-0.991711728927,0.124966935762,0.0,0.0,0.0,0.0,0.0,0.0,0.0,0.0,0.0,-0.000235,-0.000127,0.000211,0.0,0.0,0.0,0.0,0.0,0.0,0.0,0.0,0.0,0.492,0.298,-9.595,0.0,0.0,0.0,0.0,0.0,0.0,0.0,0.0,0.0
1580869120851854145,210,1580869120851001977,,0.149230209904,0.0194912691244,-0.991710808478,0.124975392827,0.0,0.0,0.0,0.0,0.0,0.0,0.0,0.0,0.0,0.00034,0.000417,-0.001138,0.0,0.0,0.0,0.0,0.0,0.0,0.0,0.0,0.0,0.484,0.31,-9.589,0.0,0.0,0.0,0.0,0.0,0.0,0.0,0.0,0.0
1580869120876464292,211,1580869120875868082,,0.149238816089,0.0195018930337,-0.99171126238,0.124967167956,0.0,0.0,0.0,0.0,0.0,0.0,0.0,0.0,0.0,0.000883,-0.000915,0.000668,0.0,0.0,0.0,0.0,0.0,0.0,0.0,0.0,0.0,0.479,0.319,-9.559,0.0,0.0,0.0,0.0,0.0,0.0,0.0,0.0,0.0
1580869120901908200,212,1580869120901397943,,0.149238816089,0.0195018930337,-0.99171126238,0.124967167956,0.0,0.0,0.0,0.0,0.0,0.0,0.0,0.0,0.0,-0.0013,-0.00061,0.000868,0.0,0.0,0.0,0.0,0.0,0.0,0.0,0.0,0.0,0.482,0.322,-9.586,0.0,0.0,0.0,0.0,0.0,0.0,0.0,0.0,0.0
1580869120926578375,213,1580869120925616979,,0.149264720709,0.0194938309263,-0.99170816056,0.124992933458,0.0,0.0,0.0,0.0,0.0,0.0,0.0,0.0,0.0,0.000977,0.000487,-0.000151,0.0,0.0,0.0,0.0,0.0,0.0,0.0,0.0,0.0,0.466,0.329,-9.571,0.0,0.0,0.0,0.0,0.0,0.0,0.0,0.0,0.0
1580869120951710890,214,1580869120951160907,,0.149281976043,0.0194951120494,-0.991706836372,0.125001703738,0.0,0.0,0.0,0.0,0.0,0.0,0.0,0.0,0.0,-0.000116,0.000942,-0.000435,0.0,0.0,0.0,0.0,0.0,0.0,0.0,0.0,0.0,0.451,0.321,-9.564,0.0,0.0,0.0,0.0,0.0,0.0,0.0,0.0,0.0
1580869120975939306,215,1580869120975433111,,0.149281954503,0.0195046525029,-0.991707523552,0.124993362996,0.0,0.0,0.0,0.0,0.0,0.0,0.0,0.0,0.0,-0.000144,0.000196,0.001381,0.0,0.0,0.0,0.0,0.0,0.0,0.0,0.0,0.0,0.481,0.314,-9.582,0.0,0.0,0.0,0.0,0.0,0.0,0.0,0.0,0.0
1580869121002436876,216,1580869121001893043,,0.149273348381,0.0194958006696,-0.991708784457,0.124984511163,0.0,0.0,0.0,0.0,0.0,0.0,0.0,0.0,0.0,-0.000586,-0.000762,0.000402,0.0,0.0,0.0,0.0,0.0,0.0,0.0,0.0,0.0,0.483,0.302,-9.616,0.0,0.0,0.0,0.0,0.0,0.0,0.0,0.0,0.0
1580869121026455546,217,1580869121025799989,,0.149281976043,0.0194959982214,-0.991707693724,0.12499316545,0.0,0.0,0.0,0.0,0.0,0.0,0.0,0.0,0.0,-0.00105,-4.2e-05,0.000431,0.0,0.0,0.0,0.0,0.0,0.0,0.0,0.0,0.0,0.512,0.312,-9.602,0.0,0.0,0.0,0.0,0.0,0.0,0.0,0.0,0.0
1580869121052128052,218,1580869121051521062,,0.149325135714,0.0194883317229,-0.99170240903,0.125036239194,0.0,0.0,0.0,0.0,0.0,0.0,0.0,0.0,0.0,-0.000971,0.001131,-0.000748,0.0,0.0,0.0,0.0,0.0,0.0,0.0,0.0,0.0,0.491,0.309,-9.572,0.0,0.0,0.0,0.0,0.0,0.0,0.0,0.0,0.0
1580869121076305628,219,1580869121075660943,,0.149342412417,0.0194800726085,-0.991700396618,0.125053350092,0.0,0.0,0.0,0.0,0.0,0.0,0.0,0.0,0.0,-4.8e-05,6e-05,0.000552,0.0,0.0,0.0,0.0,0.0,0.0,0.0,0.0,0.0,0.497,0.311,-9.579,0.0,0.0,0.0,0.0,0.0,0.0,0.0,0.0,0.0
1580869121101487191,220,1580869121100997924,,0.149342455434,0.0194627641684,-0.991700736459,0.125052954954,0.0,0.0,0.0,0.0,0.0,0.0,0.0,0.0,0.0,-0.000339,0.000104,-0.000453,0.0,0.0,0.0,0.0,0.0,0.0,0.0,0.0,0.0,0.481,0.318,-9.602,0.0,0.0,0.0,0.0,0.0,0.0,0.0,0.0,0.0
1580869121127145304,221,1580869121126533985,,0.149411454207,0.0194747730432,-0.991693550341,0.125105309125,0.0,0.0,0.0,0.0,0.0,0.0,0.0,0.0,0.0,-0.000406,0.00151,-0.001136,0.0,0.0,0.0,0.0,0.0,0.0,0.0,0.0,0.0,0.494,0.338,-9.631,0.0,0.0,0.0,0.0,0.0,0.0,0.0,0.0,0.0
1580869121151598320,222,1580869121151408910,,0.14940280519,0.0194832294987,-0.991694472068,0.125096852669,0.0,0.0,0.0,0.0,0.0,0.0,0.0,0.0,0.0,-0.000689,-0.001537,-0.000314,0.0,0.0,0.0,0.0,0.0,0.0,0.0,0.0,0.0,0.476,0.309,-9.621,0.0,0.0,0.0,0.0,0.0,0.0,0.0,0.0,0.0
1580869121176452884,223,1580869121175964117,,0.149376922641,0.0194817496857,-0.991696888867,0.125079428516,0.0,0.0,0.0,0.0,0.0,0.0,0.0,0.0,0.0,-0.000208,-0.00019,0.001163,0.0,0.0,0.0,0.0,0.0,0.0,0.0,0.0,0.0,0.478,0.321,-9.56,0.0,0.0,0.0,0.0,0.0,0.0,0.0,0.0,0.0
1580869121202016570,224,1580869121201442956,,0.149359646024,0.0194900086274,-0.991698901719,0.12506231775,0.0,0.0,0.0,0.0,0.0,0.0,0.0,0.0,0.0,-0.00109,0.000939,-0.000449,0.0,0.0,0.0,0.0,0.0,0.0,0.0,0.0,0.0,0.477,0.296,-9.615,0.0,0.0,0.0,0.0,0.0,0.0,0.0,0.0,0.0
1580869121226401933,225,1580869121225924015,,0.149385550169,0.0194819473158,-0.991695797305,0.125088082699,0.0,0.0,0.0,0.0,0.0,0.0,0.0,0.0,0.0,-0.000526,2e-06,0.001067,0.0,0.0,0.0,0.0,0.0,0.0,0.0,0.0,0.0,0.45,0.298,-9.632,0.0,0.0,0.0,0.0,0.0,0.0,0.0,0.0,0.0
1580869121252227535,226,1580869121251528978,,0.149368295102,0.0194797783538,-0.991696264277,0.125087851072,0.0,0.0,0.0,0.0,0.0,0.0,0.0,0.0,0.0,3.5e-05,-2e-05,-0.000176,0.0,0.0,0.0,0.0,0.0,0.0,0.0,0.0,0.0,0.476,0.326,-9.599,0.0,0.0,0.0,0.0,0.0,0.0,0.0,0.0,0.0
1580869121277747778,227,1580869121277287006,,0.149359667552,0.0194786938706,-0.991696497649,0.125087735245,0.0,0.0,0.0,0.0,0.0,0.0,0.0,0.0,0.0,0.000246,0.000323,0.00125,0.0,0.0,0.0,0.0,0.0,0.0,0.0,0.0,0.0,0.487,0.35,-9.601,0.0,0.0,0.0,0.0,0.0,0.0,0.0,0.0,0.0
1580869121302838607,228,1580869121302278995,,0.149350996926,0.0194966917945,-0.99169810719,0.125070937632,0.0,0.0,0.0,0.0,0.0,0.0,0.0,0.0,0.0,0.000321,0.00039,0.000512,0.0,0.0,0.0,0.0,0.0,0.0,0.0,0.0,0.0,0.497,0.303,-9.596,0.0,0.0,0.0,0.0,0.0,0.0,0.0,0.0,0.0
1580869121327094454,229,1580869121326390027,,0.149359689069,0.0194718135247,-0.991698383836,0.125070460949,0.0,0.0,0.0,0.0,0.0,0.0,0.0,0.0,0.0,0.000769,-0.001191,-0.000896,0.0,0.0,0.0,0.0,0.0,0.0,0.0,0.0,0.0,0.49,0.324,-9.589,0.0,0.0,0.0,0.0,0.0,0.0,0.0,0.0,0.0
1580869121352840472,230,1580869121352193117,,0.149411454207,0.0194738860465,-0.991692692146,0.125113847561,0.0,0.0,0.0,0.0,0.0,0.0,0.0,0.0,0.0,0.000797,-7.4e-05,0.000881,0.0,0.0,0.0,0.0,0.0,0.0,0.0,0.0,0.0,0.48,0.314,-9.619,0.0,0.0,0.0,0.0,0.0,0.0,0.0,0.0,0.0
1580869121377458915,231,1580869121376677989,,0.14942008169,0.0194749707539,-0.991692458553,0.125113963279,0.0,0.0,0.0,0.0,0.0,0.0,0.0,0.0,0.0,-2.6e-05,0.000227,0.000868,0.0,0.0,0.0,0.0,0.0,0.0,0.0,0.0,0.0,0.477,0.309,-9.575,0.0,0.0,0.0,0.0,0.0,0.0,0.0,0.0,0.0
1580869121402807095,232,1580869121402267932,,0.149445964072,0.0194773380245,-0.991690899276,0.125122848825,0.0,0.0,0.0,0.0,0.0,0.0,0.0,0.0,0.0,-0.000722,0.000824,-0.000722,0.0,0.0,0.0,0.0,0.0,0.0,0.0,0.0,0.0,0.462,0.317,-9.583,0.0,0.0,0.0,0.0,0.0,0.0,0.0,0.0,0.0
1580869121435511560,233,1580869121434765100,,0.149445964072,0.0194782248671,-0.991691757322,0.125114310374,0.0,0.0,0.0,0.0,0.0,0.0,0.0,0.0,0.0,0.001287,-0.001396,0.000619,0.0,0.0,0.0,0.0,0.0,0.0,0.0,0.0,0.0,0.496,0.322,-9.56,0.0,0.0,0.0,0.0,0.0,0.0,0.0,0.0,0.0
1580869121452251673,234,1580869121451750040,,0.149454548438,0.0194966178479,-0.991691183298,0.125114822058,0.0,0.0,0.0,0.0,0.0,0.0,0.0,0.0,0.0,-0.000762,-0.000453,0.000432,0.0,0.0,0.0,0.0,0.0,0.0,0.0,0.0,0.0,0.492,0.298,-9.603,0.0,0.0,0.0,0.0,0.0,0.0,0.0,0.0,0.0
1580869121477166136,235,1580869121476588010,,0.14950631281,0.0194986928678,-0.991685489196,0.12515820844,0.0,0.0,0.0,0.0,0.0,0.0,0.0,0.0,0.0,-0.000886,0.000371,-0.001338,0.0,0.0,0.0,0.0,0.0,0.0,0.0,0.0,0.0,0.468,0.306,-9.596,0.0,0.0,0.0,0.0,0.0,0.0,0.0,0.0,0.0
1580869121501929657,236,1580869121501355886,,0.149489079611,0.0194896426344,-0.991687843585,0.125140702175,0.0,0.0,0.0,0.0,0.0,0.0,0.0,0.0,0.0,-0.000171,0.000873,-0.000992,0.0,0.0,0.0,0.0,0.0,0.0,0.0,0.0,0.0,0.469,0.33,-9.595,0.0,0.0,0.0,0.0,0.0,0.0,0.0,0.0,0.0
1580869121527171105,237,1580869121526567935,,0.149497706991,0.0194907275574,-0.991687609526,0.125140817905,0.0,0.0,0.0,0.0,0.0,0.0,0.0,0.0,0.0,-0.001045,0.000679,0.000778,0.0,0.0,0.0,0.0,0.0,0.0,0.0,0.0,0.0,0.47,0.31,-9.613,0.0,0.0,0.0,0.0,0.0,0.0,0.0,0.0,0.0
1580869121552113929,238,1580869121551446914,,0.149514940165,0.0194997779399,-0.991685255126,0.125158324241,0.0,0.0,0.0,0.0,0.0,0.0,0.0,0.0,0.0,0.000442,0.001162,0.000493,0.0,0.0,0.0,0.0,0.0,0.0,0.0,0.0,0.0,0.485,0.314,-9.614,0.0,0.0,0.0,0.0,0.0,0.0,0.0,0.0,0.0
1580869121577691692,239,1580869121577102899,,0.149497706991,0.0194907275574,-0.991687609526,0.125140817905,0.0,0.0,0.0,0.0,0.0,0.0,0.0,0.0,0.0,0.002006,0.000348,-3.5e-05,0.0,0.0,0.0,0.0,0.0,0.0,0.0,0.0,0.0,0.47,0.315,-9.575,0.0,0.0,0.0,0.0,0.0,0.0,0.0,0.0,0.0
1580869121602503467,240,1580869121601996898,,0.149523589061,0.0194922089253,-0.99168519112,0.125158241816,0.0,0.0,0.0,0.0,0.0,0.0,0.0,0.0,0.0,3e-05,0.000784,-0.000216,0.0,0.0,0.0,0.0,0.0,0.0,0.0,0.0,0.0,0.466,0.341,-9.605,0.0,0.0,0.0,0.0,0.0,0.0,0.0,0.0,0.0
1580869121626789910,241,1580869121626163959,,0.149558098329,0.0194938888814,-0.99168167993,0.125184319731,0.0,0.0,0.0,0.0,0.0,0.0,0.0,0.0,0.0,0.000443,0.000321,-0.001613,0.0,0.0,0.0,0.0,0.0,0.0,0.0,0.0,0.0,0.482,0.323,-9.605,0.0,0.0,0.0,0.0,0.0,0.0,0.0,0.0,0.0
1580869121651993326,242,1580869121651298999,,0.149549471029,0.019494577438,-0.99168363037,0.125167127296,0.0,0.0,0.0,0.0,0.0,0.0,0.0,0.0,0.0,0.000413,0.000536,0.000301,0.0,0.0,0.0,0.0,0.0,0.0,0.0,0.0,0.0,0.461,0.309,-9.597,0.0,0.0,0.0,0.0,0.0,0.0,0.0,0.0,0.0
1580869121676969825,243,1580869121676455974,,0.149549492573,0.0194859233651,-0.991683800454,0.12516692892,0.0,0.0,0.0,0.0,0.0,0.0,0.0,0.0,0.0,0.000503,2e-06,9.6e-05,0.0,0.0,0.0,0.0,0.0,0.0,0.0,0.0,0.0,0.484,0.32,-9.596,0.0,0.0,0.0,0.0,0.0,0.0,0.0,0.0,0.0
1580869121701838730,244,1580869121701272964,,0.149540865261,0.0194848382179,-0.991684034733,0.125166813301,0.0,0.0,0.0,0.0,0.0,0.0,0.0,0.0,0.0,0.001208,0.001742,0.001185,0.0,0.0,0.0,0.0,0.0,0.0,0.0,0.0,0.0,0.455,0.317,-9.615,0.0,0.0,0.0,0.0,0.0,0.0,0.0,0.0,0.0
1580869121726101516,245,1580869121725984096,,0.149549492573,0.0194850365224,-0.991682942409,0.125175467372,0.0,0.0,0.0,0.0,0.0,0.0,0.0,0.0,0.0,0.001549,0.001129,-0.000178,0.0,0.0,0.0,0.0,0.0,0.0,0.0,0.0,0.0,0.468,0.315,-9.605,0.0,0.0,0.0,0.0,0.0,0.0,0.0,0.0,0.0
1580869121752567363,246,1580869121751974105,,0.149584023247,0.0194771756968,-0.991678742365,0.125209885258,0.0,0.0,0.0,0.0,0.0,0.0,0.0,0.0,0.0,0.000396,0.000193,0.000237,0.0,0.0,0.0,0.0,0.0,0.0,0.0,0.0,0.0,0.472,0.33,-9.61,0.0,0.0,0.0,0.0,0.0,0.0,0.0,0.0,0.0
1580869121776374656,247,1580869121776001930,,0.149601256209,0.0194862263184,-0.991676386877,0.125227391598,0.0,0.0,0.0,0.0,0.0,0.0,0.0,0.0,0.0,0.000542,-0.000566,0.000786,0.0,0.0,0.0,0.0,0.0,0.0,0.0,0.0,0.0,0.475,0.316,-9.603,0.0,0.0,0.0,0.0,0.0,0.0,0.0,0.0,0.0
1580869121801908304,248,1580869121801311016,,0.149661646599,0.0194876143462,-0.991668735321,0.125287969427,0.0,0.0,0.0,0.0,0.0,0.0,0.0,0.0,0.0,-0.000359,0.000115,-0.001097,0.0,0.0,0.0,0.0,0.0,0.0,0.0,0.0,0.0,0.499,0.332,-9.607,0.0,0.0,0.0,0.0,0.0,0.0,0.0,0.0,0.0
1580869121826850426,249,1580869121826289892,,0.149678879331,0.01949755284,-0.991667237535,0.125296937307,0.0,0.0,0.0,0.0,0.0,0.0,0.0,0.0,0.0,-0.000864,0.000514,0.000234,0.0,0.0,0.0,0.0,0.0,0.0,0.0,0.0,0.0,0.495,0.319,-9.617,0.0,0.0,0.0,0.0,0.0,0.0,0.0,0.0,0.0
1580869121851908336,250,1580869121851207971,,0.149696133577,0.0194997253917,-0.991666768702,0.125297168607,0.0,0.0,0.0,0.0,0.0,0.0,0.0,0.0,0.0,0.000255,0.001184,0.000114,0.0,0.0,0.0,0.0,0.0,0.0,0.0,0.0,0.0,0.483,0.331,-9.559,0.0,0.0,0.0,0.0,0.0,0.0,0.0,0.0,0.0
1580869121877445954,251,1580869121876650094,,0.149704760683,0.0194999238911,-0.991665675241,0.125305822527,0.0,0.0,0.0,0.0,0.0,0.0,0.0,0.0,0.0,0.00074,-0.000579,0.000846,0.0,0.0,0.0,0.0,0.0,0.0,0.0,0.0,0.0,0.471,0.325,-9.592,0.0,0.0,0.0,0.0,0.0,0.0,0.0,0.0,0.0
1580869121902706768,252,1580869121901916980,,0.149722014862,0.0195003208852,-0.99166348809,0.125323130339,0.0,0.0,0.0,0.0,0.0,0.0,0.0,0.0,0.0,0.000109,0.000811,-8.8e-05,0.0,0.0,0.0,0.0,0.0,0.0,0.0,0.0,0.0,0.475,0.337,-9.589,0.0,0.0,0.0,0.0,0.0,0.0,0.0,0.0,0.0
1580869121927106479,253,1580869121926645040,,0.149773755534,0.0195101656705,-0.991656754607,0.125375252028,0.0,0.0,0.0,0.0,0.0,0.0,0.0,0.0,0.0,0.000899,-8.6e-05,0.000879,0.0,0.0,0.0,0.0,0.0,0.0,0.0,0.0,0.0,0.508,0.322,-9.582,0.0,0.0,0.0,0.0,0.0,0.0,0.0,0.0,0.0
1580869121952237714,254,1580869121951632022,,0.149791009528,0.0195096739159,-0.991653706426,0.125401097802,0.0,0.0,0.0,0.0,0.0,0.0,0.0,0.0,0.0,-0.001181,-0.00046,0.000776,0.0,0.0,0.0,0.0,0.0,0.0,0.0,0.0,0.0,0.462,0.318,-9.624,0.0,0.0,0.0,0.0,0.0,0.0,0.0,0.0,0.0
1580869121977117501,255,1580869121976541996,,0.149765128521,0.0195081900888,-0.991656129335,0.125383674451,0.0,0.0,0.0,0.0,0.0,0.0,0.0,0.0,0.0,-0.000215,-0.000428,-0.0005,0.0,0.0,0.0,0.0,0.0,0.0,0.0,0.0,0.0,0.496,0.311,-9.602,0.0,0.0,0.0,0.0,0.0,0.0,0.0,0.0,0.0
1580869122001882451,256,1580869122001380920,,0.149756523081,0.0194993379209,-0.991657393678,0.125374822283,0.0,0.0,0.0,0.0,0.0,0.0,0.0,0.0,0.0,0.000951,0.000664,-9.4e-05,0.0,0.0,0.0,0.0,0.0,0.0,0.0,0.0,0.0,0.472,0.319,-9.609,0.0,0.0,0.0,0.0,0.0,0.0,0.0,0.0,0.0
1580869122026483865,257,1580869122025918960,,0.149747917616,0.0194913741909,-0.991659517477,0.125357431799,0.0,0.0,0.0,0.0,0.0,0.0,0.0,0.0,0.0,-0.001324,0.001338,-0.000196,0.0,0.0,0.0,0.0,0.0,0.0,0.0,0.0,0.0,0.504,0.315,-9.612,0.0,0.0,0.0,0.0,0.0,0.0,0.0,0.0,0.0
1580869122051345966,258,1580869122050805091,,0.149747917616,0.0194922624968,-0.991660376939,0.12534889349,0.0,0.0,0.0,0.0,0.0,0.0,0.0,0.0,0.0,0.000195,0.00077,0.00129,0.0,0.0,0.0,0.0,0.0,0.0,0.0,0.0,0.0,0.492,0.32,-9.591,0.0,0.0,0.0,0.0,0.0,0.0,0.0,0.0,0.0
1580869122076748408,259,1580869122076215028,,0.149765171682,0.0194926594952,-0.991658189037,0.125366201209,0.0,0.0,0.0,0.0,0.0,0.0,0.0,0.0,0.0,-0.000561,-0.000886,-0.001247,0.0,0.0,0.0,0.0,0.0,0.0,0.0,0.0,0.0,0.489,0.341,-9.583,0.0,0.0,0.0,0.0,0.0,0.0,0.0,0.0,0.0
1580869122101801718,260,1580869122101303100,,0.149756523081,0.0195020030921,-0.991659972263,0.125349207609,0.0,0.0,0.0,0.0,0.0,0.0,0.0,0.0,0.0,0.000205,0.000661,0.000862,0.0,0.0,0.0,0.0,0.0,0.0,0.0,0.0,0.0,0.492,0.328,-9.58,0.0,0.0,0.0,0.0,0.0,0.0,0.0,0.0,0.0
1580869122126427110,261,1580869122125854015,,0.149782382537,0.0195130291096,-0.991658238801,0.125358291395,0.0,0.0,0.0,0.0,0.0,0.0,0.0,0.0,0.0,0.000701,-0.000337,0.000863,0.0,0.0,0.0,0.0,0.0,0.0,0.0,0.0,0.0,0.494,0.303,-9.613,0.0,0.0,0.0,0.0,0.0,0.0,0.0,0.0,0.0
1580869122151705715,262,1580869122151010036,,0.149782404126,0.0195052632636,-0.991659268203,0.125349554422,0.0,0.0,0.0,0.0,0.0,0.0,0.0,0.0,0.0,0.000578,0.001586,-0.001619,0.0,0.0,0.0,0.0,0.0,0.0,0.0,0.0,0.0,0.475,0.311,-9.61,0.0,0.0,0.0,0.0,0.0,0.0,0.0,0.0,0.0
1580869122176407276,263,1580869122175803899,,0.149782382537,0.0195148049813,-0.991659956948,0.12534121501,0.0,0.0,0.0,0.0,0.0,0.0,0.0,0.0,0.0,-0.000466,0.00057,0.001187,0.0,0.0,0.0,0.0,0.0,0.0,0.0,0.0,0.0,0.494,0.319,-9.603,0.0,0.0,0.0,0.0,0.0,0.0,0.0,0.0,0.0
1580869122201764091,264,1580869122201292991,,0.149782360936,0.0195243465585,-0.991660645454,0.125332875728,0.0,0.0,0.0,0.0,0.0,0.0,0.0,0.0,0.0,0.000673,-0.000191,-0.001439,0.0,0.0,0.0,0.0,0.0,0.0,0.0,0.0,0.0,0.498,0.301,-9.604,0.0,0.0,0.0,0.0,0.0,0.0,0.0,0.0,0.0
1580869122226255161,265,1580869122225627899,,0.149782382537,0.0195165802369,-0.991661674499,0.125324138564,0.0,0.0,0.0,0.0,0.0,0.0,0.0,0.0,0.0,-0.000278,0.000249,-0.000402,0.0,0.0,0.0,0.0,0.0,0.0,0.0,0.0,0.0,0.511,0.323,-9.604,0.0,0.0,0.0,0.0,0.0,0.0,0.0,0.0,0.0
1580869122251374776,266,1580869122250710964,,0.149791009528,0.0195167792509,-0.991660580802,0.12533279244,0.0,0.0,0.0,0.0,0.0,0.0,0.0,0.0,0.0,-0.00072,0.000305,0.000622,0.0,0.0,0.0,0.0,0.0,0.0,0.0,0.0,0.0,0.479,0.334,-9.625,0.0,0.0,0.0,0.0,0.0,0.0,0.0,0.0,0.0
1580869122276409384,267,1580869122275912046,,0.149791031118,0.019508125379,-0.99166075108,0.125332593422,0.0,0.0,0.0,0.0,0.0,0.0,0.0,0.0,0.0,0.000361,0.000185,0.000816,0.0,0.0,0.0,0.0,0.0,0.0,0.0,0.0,0.0,0.461,0.287,-9.593,0.0,0.0,0.0,0.0,0.0,0.0,0.0,0.0,0.0
1580869122301423809,268,1580869122300856113,,0.149816955179,0.0194905269136,-0.991656950859,0.125366695372,0.0,0.0,0.0,0.0,0.0,0.0,0.0,0.0,0.0,0.000885,-0.00096,0.001165,0.0,0.0,0.0,0.0,0.0,0.0,0.0,0.0,0.0,0.477,0.327,-9.629,0.0,0.0,0.0,0.0,0.0,0.0,0.0,0.0,0.0
1580869122325916995,269,1580869122325464010,,0.149842835992,0.0194911237882,-0.991653668427,0.125392656848,0.0,0.0,0.0,0.0,0.0,0.0,0.0,0.0,0.0,-0.00063,0.000895,-0.000494,0.0,0.0,0.0,0.0,0.0,0.0,0.0,0.0,0.0,0.476,0.317,-9.567,0.0,0.0,0.0,0.0,0.0,0.0,0.0,0.0,0.0
1580869122351151455,270,1580869122350545883,,0.149868716702,0.0194926089478,-0.991651244784,0.125410079851,0.0,0.0,0.0,0.0,0.0,0.0,0.0,0.0,0.0,0.0013,0.000232,0.000697,0.0,0.0,0.0,0.0,0.0,0.0,0.0,0.0,0.0,0.494,0.319,-9.595,0.0,0.0,0.0,0.0,0.0,0.0,0.0,0.0,0.0
1580869122376654206,271,1580869122375601053,,0.149842814417,0.0194997775982,-0.991653498297,0.125392855799,0.0,0.0,0.0,0.0,0.0,0.0,0.0,0.0,0.0,0.000123,0.000103,0.000752,0.0,0.0,0.0,0.0,0.0,0.0,0.0,0.0,0.0,0.495,0.316,-9.581,0.0,0.0,0.0,0.0,0.0,0.0,0.0,0.0,0.0
1580869122402958072,272,1580869122402266025,,0.149868695123,0.0195012627367,-0.991651074641,0.125410278875,0.0,0.0,0.0,0.0,0.0,0.0,0.0,0.0,0.0,-0.000283,-0.000379,0.000998,0.0,0.0,0.0,0.0,0.0,0.0,0.0,0.0,0.0,0.481,0.329,-9.58,0.0,0.0,0.0,0.0,0.0,0.0,0.0,0.0,0.0
1580869122426641348,273,1580869122425803899,,0.149911786202,0.0195204538428,-0.991646120781,0.125445407567,0.0,0.0,0.0,0.0,0.0,0.0,0.0,0.0,0.0,0.000728,0.000771,4.7e-05,0.0,0.0,0.0,0.0,0.0,0.0,0.0,0.0,0.0,0.487,0.327,-9.588,0.0,0.0,0.0,0.0,0.0,0.0,0.0,0.0,0.0
1580869122452617829,274,1580869122452168941,,0.149885905674,0.0195198566277,-0.991649404594,0.125419446289,0.0,0.0,0.0,0.0,0.0,0.0,0.0,0.0,0.0,-1.7e-05,0.001658,0.000565,0.0,0.0,0.0,0.0,0.0,0.0,0.0,0.0,0.0,0.503,0.31,-9.627,0.0,0.0,0.0,0.0,0.0,0.0,0.0,0.0,0.0
1580869122476028926,275,1580869122475486040,,0.149894532528,0.0195209439448,-0.991649169437,0.125419561895,0.0,0.0,0.0,0.0,0.0,0.0,0.0,0.0,0.0,-0.0001,0.00086,0.000386,0.0,0.0,0.0,0.0,0.0,0.0,0.0,0.0,0.0,0.49,0.301,-9.594,0.0,0.0,0.0,0.0,0.0,0.0,0.0,0.0,0.0
1580869122502454734,276,1580869122501848936,,0.149894532528,0.0195218320346,-0.991650028659,0.125411023718,0.0,0.0,0.0,0.0,0.0,0.0,0.0,0.0,0.0,0.000456,-0.000309,-0.000803,0.0,0.0,0.0,0.0,0.0,0.0,0.0,0.0,0.0,0.482,0.309,-9.584,0.0,0.0,0.0,0.0,0.0,0.0,0.0,0.0,0.0
1580869122527317167,277,1580869122526653051,,0.149946293412,0.0195230273666,-0.991643460794,0.12546294622,0.0,0.0,0.0,0.0,0.0,0.0,0.0,0.0,0.0,0.001304,-0.000779,0.000742,0.0,0.0,0.0,0.0,0.0,0.0,0.0,0.0,0.0,0.512,0.327,-9.587,0.0,0.0,0.0,0.0,0.0,0.0,0.0,0.0,0.0
1580869122552531827,278,1580869122551980018,,0.14992043463,0.0195137759562,-0.991646915394,0.125436785785,0.0,0.0,0.0,0.0,0.0,0.0,0.0,0.0,0.0,0.000456,-0.000513,-0.000956,0.0,0.0,0.0,0.0,0.0,0.0,0.0,0.0,0.0,0.461,0.307,-9.621,0.0,0.0,0.0,0.0,0.0,0.0,0.0,0.0,0.0
1580869122577355586,279,1580869122576615095,,0.14988594887,0.0195025490776,-0.991649745129,0.125419048122,0.0,0.0,0.0,0.0,0.0,0.0,0.0,0.0,0.0,0.000275,-0.000684,0.000331,0.0,0.0,0.0,0.0,0.0,0.0,0.0,0.0,0.0,0.443,0.31,-9.607,0.0,0.0,0.0,0.0,0.0,0.0,0.0,0.0,0.0
1580869122602046997,280,1580869122601468086,,0.149877322003,0.0195014617549,-0.991649980192,0.125418932658,0.0,0.0,0.0,0.0,0.0,0.0,0.0,0.0,0.0,0.000331,0.000972,-0.000337,0.0,0.0,0.0,0.0,0.0,0.0,0.0,0.0,0.0,0.462,0.289,-9.587,0.0,0.0,0.0,0.0,0.0,0.0,0.0,0.0,0.0
1580869122627200183,281,1580869122626667976,,0.14988594887,0.0195007723118,-0.991648026057,0.125436124726,0.0,0.0,0.0,0.0,0.0,0.0,0.0,0.0,0.0,5.7e-05,-0.000526,-0.000809,0.0,0.0,0.0,0.0,0.0,0.0,0.0,0.0,0.0,0.47,0.332,-9.607,0.0,0.0,0.0,0.0,0.0,0.0,0.0,0.0,0.0
1580869122652086421,282,1580869122651456117,,0.149868716702,0.0194917206494,-0.991650385315,0.125418618237,0.0,0.0,0.0,0.0,0.0,0.0,0.0,0.0,0.0,-9.4e-05,0.000148,0.000205,0.0,0.0,0.0,0.0,0.0,0.0,0.0,0.0,0.0,0.47,0.32,-9.614,0.0,0.0,0.0,0.0,0.0,0.0,0.0,0.0,0.0
1580869122677012613,283,1580869122676433086,,0.149851462907,0.0194922108878,-0.991653433452,0.125392772252,0.0,0.0,0.0,0.0,0.0,0.0,0.0,0.0,0.0,-0.00146,0.00073,-6.3e-05,0.0,0.0,0.0,0.0,0.0,0.0,0.0,0.0,0.0,0.484,0.329,-9.601,0.0,0.0,0.0,0.0,0.0,0.0,0.0,0.0,0.0
1580869122702076771,284,1580869122701481103,,0.149842835992,0.0194911237882,-0.991653668427,0.125392656848,0.0,0.0,0.0,0.0,0.0,0.0,0.0,0.0,0.0,0.00024,0.000839,-0.001337,0.0,0.0,0.0,0.0,0.0,0.0,0.0,0.0,0.0,0.49,0.307,-9.617,0.0,0.0,0.0,0.0,0.0,0.0,0.0,0.0,0.0
1580869122727028612,285,1580869122726501941,,0.149920456228,0.0195033454378,-0.991645366574,0.125453663152,0.0,0.0,0.0,0.0,0.0,0.0,0.0,0.0,0.0,-0.000553,0.000651,0.000298,0.0,0.0,0.0,0.0,0.0,0.0,0.0,0.0,0.0,0.471,0.319,-9.596,0.0,0.0,0.0,0.0,0.0,0.0,0.0,0.0,0.0
1580869122752464272,286,1580869122751960992,,0.149937709838,0.019503743609,-0.991643176844,0.12547097061,0.0,0.0,0.0,0.0,0.0,0.0,0.0,0.0,0.0,-0.000338,-7.9e-05,-5.8e-05,0.0,0.0,0.0,0.0,0.0,0.0,0.0,0.0,0.0,0.492,0.338,-9.604,0.0,0.0,0.0,0.0,0.0,0.0,0.0,0.0,0.0
1580869122776829472,287,1580869122776262998,,0.149963590167,0.0195034518556,-0.99163903155,0.125505469966,0.0,0.0,0.0,0.0,0.0,0.0,0.0,0.0,0.0,-0.000515,0.001089,-0.001052,0.0,0.0,0.0,0.0,0.0,0.0,0.0,0.0,0.0,0.454,0.3,-9.638,0.0,0.0,0.0,0.0,0.0,0.0,0.0,0.0,0.0
1580869122802133439,288,1580869122801609992,,0.149937753003,0.0194846585076,-0.9916417971,0.125487649244,0.0,0.0,0.0,0.0,0.0,0.0,0.0,0.0,0.0,0.000495,-0.000347,-0.000533,0.0,0.0,0.0,0.0,0.0,0.0,0.0,0.0,0.0,0.479,0.317,-9.613,0.0,0.0,0.0,0.0,0.0,0.0,0.0,0.0,0.0
1580869122827225019,289,1580869122826603889,,0.149903245727,0.019482973946,-0.991645316917,0.125461572757,0.0,0.0,0.0,0.0,0.0,0.0,0.0,0.0,0.0,-0.000249,-0.000283,0.000515,0.0,0.0,0.0,0.0,0.0,0.0,0.0,0.0,0.0,0.482,0.308,-9.563,0.0,0.0,0.0,0.0,0.0,0.0,0.0,0.0,0.0
1580869122852006386,290,1580869122851342916,,0.149911894125,0.0194745190943,-0.991644392006,0.125470027609,0.0,0.0,0.0,0.0,0.0,0.0,0.0,0.0,0.0,-0.000803,-0.000796,0.000731,0.0,0.0,0.0,0.0,0.0,0.0,0.0,0.0,0.0,0.481,0.292,-9.55,0.0,0.0,0.0,0.0,0.0,0.0,0.0,0.0,0.0
1580869122877722647,291,1580869122876240968,,0.149929147766,0.0194749168637,-0.99164220199,0.125487335049,0.0,0.0,0.0,0.0,0.0,0.0,0.0,0.0,0.0,0.000289,-8.9e-05,-0.000799,0.0,0.0,0.0,0.0,0.0,0.0,0.0,0.0,0.0,0.493,0.295,-9.585,0.0,0.0,0.0,0.0,0.0,0.0,0.0,0.0,0.0
1580869122902831021,292,1580869122901860952,,0.149937774569,0.0194760047997,-0.991641967098,0.12548745029,0.0,0.0,0.0,0.0,0.0,0.0,0.0,0.0,0.0,0.001638,0.000252,0.000747,0.0,0.0,0.0,0.0,0.0,0.0,0.0,0.0,0.0,0.498,0.351,-9.651,0.0,0.0,0.0,0.0,0.0,0.0,0.0,0.0,0.0
1580869122927005220,293,1580869122926389932,,0.149937753003,0.0194846585076,-0.9916417971,0.125487649244,0.0,0.0,0.0,0.0,0.0,0.0,0.0,0.0,0.0,-0.000216,0.000793,0.001189,0.0,0.0,0.0,0.0,0.0,0.0,0.0,0.0,0.0,0.5,0.358,-9.612,0.0,0.0,0.0,0.0,0.0,0.0,0.0,0.0,0.0
1580869122951804570,294,1580869122951066970,,0.149920499388,0.0194842606063,-0.991643987122,0.125470341811,0.0,0.0,0.0,0.0,0.0,0.0,0.0,0.0,0.0,0.00092,-0.000521,-0.000352,0.0,0.0,0.0,0.0,0.0,0.0,0.0,0.0,0.0,0.492,0.355,-9.57,0.0,0.0,0.0,0.0,0.0,0.0,0.0,0.0,0.0
1580869122977043380,295,1580869122976494073,,0.149929147766,0.0194758058402,-0.991643062145,0.125478796577,0.0,0.0,0.0,0.0,0.0,0.0,0.0,0.0,0.0,0.000797,-0.000869,-0.000324,0.0,0.0,0.0,0.0,0.0,0.0,0.0,0.0,0.0,0.504,0.367,-9.571,0.0,0.0,0.0,0.0,0.0,0.0,0.0,0.0,0.0
1580869123001932704,296,1580869123001358985,,0.149937774569,0.0194751157462,-0.991641106868,0.125495988755,0.0,0.0,0.0,0.0,0.0,0.0,0.0,0.0,0.0,0.000852,-0.000862,-9.7e-05,0.0,0.0,0.0,0.0,0.0,0.0,0.0,0.0,0.0,0.517,0.292,-9.598,0.0,0.0,0.0,0.0,0.0,0.0,0.0,0.0,0.0
1580869123026892201,297,1580869123026336908,,0.149980951522,0.0194596922503,-0.991636830518,0.125530320792,0.0,0.0,0.0,0.0,0.0,0.0,0.0,0.0,0.0,0.000723,-0.001412,0.000863,0.0,0.0,0.0,0.0,0.0,0.0,0.0,0.0,0.0,0.489,0.294,-9.607,0.0,0.0,0.0,0.0,0.0,0.0,0.0,0.0,0.0
1580869123051525152,298,1580869123050983905,,0.149955092777,0.019450441639,-0.991640286329,0.125504160778,0.0,0.0,0.0,0.0,0.0,0.0,0.0,0.0,0.0,0.000875,6.7e-05,-0.000846,0.0,0.0,0.0,0.0,0.0,0.0,0.0,0.0,0.0,0.472,0.281,-9.597,0.0,0.0,0.0,0.0,0.0,0.0,0.0,0.0,0.0
1580869123077037710,299,1580869123076513051,,0.149937860717,0.0194405009297,-0.991641786074,0.125495193152,0.0,0.0,0.0,0.0,0.0,0.0,0.0,0.0,0.0,9.7e-05,-0.000383,0.001304,0.0,0.0,0.0,0.0,0.0,0.0,0.0,0.0,0.0,0.472,0.283,-9.573,0.0,0.0,0.0,0.0,0.0,0.0,0.0,0.0,0.0
1580869123101741407,300,1580869123101176023,,0.149929255416,0.0194307591987,-0.991642190456,0.125494879357,0.0,0.0,0.0,0.0,0.0,0.0,0.0,0.0,0.0,-5.6e-05,-0.001346,0.000535,0.0,0.0,0.0,0.0,0.0,0.0,0.0,0.0,0.0,0.466,0.311,-9.598,0.0,0.0,0.0,0.0,0.0,0.0,0.0,0.0,0.0
1580869123126509256,301,1580869123125941038,,0.149912001764,0.0194294723947,-0.991643520261,0.125486110759,0.0,0.0,0.0,0.0,0.0,0.0,0.0,0.0,0.0,0.00093,-0.000781,-0.000531,0.0,0.0,0.0,0.0,0.0,0.0,0.0,0.0,0.0,0.456,0.297,-9.618,0.0,0.0,0.0,0.0,0.0,0.0,0.0,0.0,0.0
1580869123151663050,302,1580869123151051044,,0.149929233909,0.0194385236541,-0.991641160369,0.125503616957,0.0,0.0,0.0,0.0,0.0,0.0,0.0,0.0,0.0,-0.000738,0.000452,0.000675,0.0,0.0,0.0,0.0,0.0,0.0,0.0,0.0,0.0,0.451,0.318,-9.615,0.0,0.0,0.0,0.0,0.0,0.0,0.0,0.0,0.0
1580869123176539270,303,1580869123175976037,,0.149963676467,0.0194643899565,-0.991635408694,0.125547366403,0.0,0.0,0.0,0.0,0.0,0.0,0.0,0.0,0.0,-0.000789,0.001247,-0.000448,0.0,0.0,0.0,0.0,0.0,0.0,0.0,0.0,0.0,0.47,0.321,-9.626,0.0,0.0,0.0,0.0,0.0,0.0,0.0,0.0,0.0
1580869123201753075,304,1580869123201105117,,0.149946358215,0.0194899536468,-0.991637089851,0.125530655014,0.0,0.0,0.0,0.0,0.0,0.0,0.0,0.0,0.0,8.1e-05,1.5e-05,0.000638,0.0,0.0,0.0,0.0,0.0,0.0,0.0,0.0,0.0,0.471,0.338,-9.612,0.0,0.0,0.0,0.0,0.0,0.0,0.0,0.0,0.0
1580869123226560667,305,1580869123225938081,,0.149989448787,0.0195082540125,-0.991631271267,0.125574320452,0.0,0.0,0.0,0.0,0.0,0.0,0.0,0.0,0.0,-0.000665,-0.000914,-0.000422,0.0,0.0,0.0,0.0,0.0,0.0,0.0,0.0,0.0,0.483,0.342,-9.632,0.0,0.0,0.0,0.0,0.0,0.0,0.0,0.0,0.0
1580869123251710446,306,1580869123251065969,,0.150023912332,0.0195272458968,-0.99162740802,0.125600794129,0.0,0.0,0.0,0.0,0.0,0.0,0.0,0.0,0.0,-0.00091,-5e-06,0.000101,0.0,0.0,0.0,0.0,0.0,0.0,0.0,0.0,0.0,0.501,0.326,-9.581,0.0,0.0,0.0,0.0,0.0,0.0,0.0,0.0,0.0
1580869123276715188,307,1580869123276113033,,0.15004116566,0.0195294237123,-0.991626938323,0.125601025492,0.0,0.0,0.0,0.0,0.0,0.0,0.0,0.0,0.0,5e-05,0.000359,-0.000573,0.0,0.0,0.0,0.0,0.0,0.0,0.0,0.0,0.0,0.485,0.293,-9.619,0.0,0.0,0.0,0.0,0.0,0.0,0.0,0.0,0.0
1580869123301488777,308,1580869123300925970,,0.150041230539,0.0195043529732,-0.991628310363,0.125591890886,0.0,0.0,0.0,0.0,0.0,0.0,0.0,0.0,0.0,0.000341,-3.3e-05,1.1e-05,0.0,0.0,0.0,0.0,0.0,0.0,0.0,0.0,0.0,0.51,0.269,-9.591,0.0,0.0,0.0,0.0,0.0,0.0,0.0,0.0,0.0
1580869123327068295,309,1580869123326579093,,0.15006715366,0.019489422549,-0.991627084542,0.12560037718,0.0,0.0,0.0,0.0,0.0,0.0,0.0,0.0,0.0,0.000608,-0.001056,-0.001338,0.0,0.0,0.0,0.0,0.0,0.0,0.0,0.0,0.0,0.492,0.325,-9.61,0.0,0.0,0.0,0.0,0.0,0.0,0.0,0.0,0.0
1580869123352060688,310,1580869123351080894,,0.150041295315,0.0194792820216,-0.991629681621,0.125582755716,0.0,0.0,0.0,0.0,0.0,0.0,0.0,0.0,0.0,0.001306,-0.000145,-8.3e-05,0.0,0.0,0.0,0.0,0.0,0.0,0.0,0.0,0.0,0.474,0.314,-9.593,0.0,0.0,0.0,0.0,0.0,0.0,0.0,0.0,0.0
1580869123376644825,311,1580869123376029968,,0.150041338442,0.0194628644703,-0.991630882289,0.125573819101,0.0,0.0,0.0,0.0,0.0,0.0,0.0,0.0,0.0,-0.000588,0.001032,0.00013,0.0,0.0,0.0,0.0,0.0,0.0,0.0,0.0,0.0,0.458,0.295,-9.615,0.0,0.0,0.0,0.0,0.0,0.0,0.0,0.0,0.0
1580869123401634912,312,1580869123401077032,,0.150032733318,0.0194531221632,-0.991631287121,0.125573505008,0.0,0.0,0.0,0.0,0.0,0.0,0.0,0.0,0.0,-0.000327,-0.000123,0.000414,0.0,0.0,0.0,0.0,0.0,0.0,0.0,0.0,0.0,0.472,0.308,-9.588,0.0,0.0,0.0,0.0,0.0,0.0,0.0,0.0,0.0
1580869123426604198,313,1580869123425854921,,0.149998226525,0.0194505469728,-0.991633948458,0.125555967772,0.0,0.0,0.0,0.0,0.0,0.0,0.0,0.0,0.0,-0.000333,-0.000396,-0.000497,0.0,0.0,0.0,0.0,0.0,0.0,0.0,0.0,0.0,0.479,0.318,-9.569,0.0,0.0,0.0,0.0,0.0,0.0,0.0,0.0,0.0
1580869123451782347,314,1580869123451077938,,0.150041359988,0.0194515414545,-0.991628469102,0.125599235846,0.0,0.0,0.0,0.0,0.0,0.0,0.0,0.0,0.0,0.000352,-0.00056,-0.000476,0.0,0.0,0.0,0.0,0.0,0.0,0.0,0.0,0.0,0.489,0.332,-9.609,0.0,0.0,0.0,0.0,0.0,0.0,0.0,0.0,0.0
1580869123476151123,315,1580869123475533962,,0.15005863483,0.0194432856644,-0.991626446543,0.125616344114,0.0,0.0,0.0,0.0,0.0,0.0,0.0,0.0,0.0,3.5e-05,0.000821,0.001077,0.0,0.0,0.0,0.0,0.0,0.0,0.0,0.0,0.0,0.479,0.332,-9.594,0.0,0.0,0.0,0.0,0.0,0.0,0.0,0.0,0.0
1580869123501962393,316,1580869123501311063,,0.150058591744,0.0194597025372,-0.991625245605,0.125625280393,0.0,0.0,0.0,0.0,0.0,0.0,0.0,0.0,0.0,-0.000368,-0.000492,0.000489,0.0,0.0,0.0,0.0,0.0,0.0,0.0,0.0,0.0,0.471,0.334,-9.616,0.0,0.0,0.0,0.0,0.0,0.0,0.0,0.0,0.0
1580869123526397203,317,1580869123525856971,,0.150075823439,0.0194696441155,-0.991623744599,0.125634247887,0.0,0.0,0.0,0.0,0.0,0.0,0.0,0.0,0.0,-0.000546,0.000725,6.2e-05,0.0,0.0,0.0,0.0,0.0,0.0,0.0,0.0,0.0,0.46,0.328,-9.609,0.0,0.0,0.0,0.0,0.0,0.0,0.0,0.0,0.0
1580869123552964069,318,1580869123551840066,,0.150093033483,0.0194873489057,-0.991621211749,0.125651952678,0.0,0.0,0.0,0.0,0.0,0.0,0.0,0.0,0.0,-0.000348,0.001284,0.000696,0.0,0.0,0.0,0.0,0.0,0.0,0.0,0.0,0.0,0.494,0.336,-9.562,0.0,0.0,0.0,0.0,0.0,0.0,0.0,0.0,0.0
1580869123576320710,319,1580869123575757980,,0.150118913203,0.0194888361137,-0.991618783636,0.125669374987,0.0,0.0,0.0,0.0,0.0,0.0,0.0,0.0,0.0,0.000423,-0.000419,0.000747,0.0,0.0,0.0,0.0,0.0,0.0,0.0,0.0,0.0,0.481,0.32,-9.595,0.0,0.0,0.0,0.0,0.0,0.0,0.0,0.0,0.0
1580869123601350506,320,1580869123600761890,,0.150127561346,0.0194803815335,-0.991617856962,0.125677829567,0.0,0.0,0.0,0.0,0.0,0.0,0.0,0.0,0.0,0.001551,-0.000789,0.000131,0.0,0.0,0.0,0.0,0.0,0.0,0.0,0.0,0.0,0.484,0.324,-9.615,0.0,0.0,0.0,0.0,0.0,0.0,0.0,0.0,0.0
1580869123626460552,321,1580869123625961065,,0.150110308231,0.0194799836783,-0.991620050303,0.125660522551,0.0,0.0,0.0,0.0,0.0,0.0,0.0,0.0,0.0,0.000518,0.001543,7.2e-05,0.0,0.0,0.0,0.0,0.0,0.0,0.0,0.0,0.0,0.479,0.299,-9.582,0.0,0.0,0.0,0.0,0.0,0.0,0.0,0.0,0.0
1580869123651279798,322,1580869123650654077,,0.150118977944,0.0194637660896,-0.991620155174,0.125660239713,0.0,0.0,0.0,0.0,0.0,0.0,0.0,0.0,0.0,-3.7e-05,0.000312,0.000142,0.0,0.0,0.0,0.0,0.0,0.0,0.0,0.0,0.0,0.473,0.324,-9.594,0.0,0.0,0.0,0.0,0.0,0.0,0.0,0.0,0.0
1580869123675533127,323,1580869123675416946,,0.1501362526,0.0194546199861,-0.991617269839,0.125685886243,0.0,0.0,0.0,0.0,0.0,0.0,0.0,0.0,0.0,5.8e-05,-0.000522,-0.000803,0.0,0.0,0.0,0.0,0.0,0.0,0.0,0.0,0.0,0.493,0.292,-9.622,0.0,0.0,0.0,0.0,0.0,0.0,0.0,0.0,0.0
1580869123702367658,324,1580869123701828002,,0.150119021047,0.0194446779228,-0.991618771227,0.125676918892,0.0,0.0,0.0,0.0,0.0,0.0,0.0,0.0,0.0,-0.001733,0.000312,-4.4e-05,0.0,0.0,0.0,0.0,0.0,0.0,0.0,0.0,0.0,0.453,0.32,-9.574,0.0,0.0,0.0,0.0,0.0,0.0,0.0,0.0,0.0
1580869123727582850,325,1580869123727093935,,0.150110351378,0.0194617860619,-0.991619528406,0.125668663143,0.0,0.0,0.0,0.0,0.0,0.0,0.0,0.0,0.0,-0.000366,0.000909,-0.000541,0.0,0.0,0.0,0.0,0.0,0.0,0.0,0.0,0.0,0.453,0.33,-9.594,0.0,0.0,0.0,0.0,0.0,0.0,0.0,0.0,0.0
1580869123752130366,326,1580869123751482009,,0.15011032981,0.019470439574,-0.991619358532,0.125668862009,0.0,0.0,0.0,0.0,0.0,0.0,0.0,0.0,0.0,0.000498,0.00091,-0.000983,0.0,0.0,0.0,0.0,0.0,0.0,0.0,0.0,0.0,0.479,0.329,-9.593,0.0,0.0,0.0,0.0,0.0,0.0,0.0,0.0,0.0
1580869123777209111,327,1580869123776182889,,0.150118913203,0.0194870546033,-0.991617059913,0.125686451433,0.0,0.0,0.0,0.0,0.0,0.0,0.0,0.0,0.0,-0.000341,0.001197,-0.000211,0.0,0.0,0.0,0.0,0.0,0.0,0.0,0.0,0.0,0.493,0.33,-9.585,0.0,0.0,0.0,0.0,0.0,0.0,0.0,0.0,0.0
1580869123802454015,328,1580869123802001953,,0.150136144687,0.0194978874333,-0.991616420027,0.12568688089,0.0,0.0,0.0,0.0,0.0,0.0,0.0,0.0,0.0,0.000384,-0.000299,0.00083,0.0,0.0,0.0,0.0,0.0,0.0,0.0,0.0,0.0,0.487,0.334,-9.584,0.0,0.0,0.0,0.0,0.0,0.0,0.0,0.0,0.0
1580869123826260384,329,1580869123825700044,,0.150144771213,0.0194989771007,-0.991616185018,0.125686996225,0.0,0.0,0.0,0.0,0.0,0.0,0.0,0.0,0.0,0.000753,-0.001425,0.000722,0.0,0.0,0.0,0.0,0.0,0.0,0.0,0.0,0.0,0.499,0.34,-9.589,0.0,0.0,0.0,0.0,0.0,0.0,0.0,0.0,0.0
1580869123852088584,330,1580869123851448059,,0.150153419336,0.0194923038085,-0.991616981704,0.125678374244,0.0,0.0,0.0,0.0,0.0,0.0,0.0,0.0,0.0,-6.6e-05,0.000535,-0.000244,0.0,0.0,0.0,0.0,0.0,0.0,0.0,0.0,0.0,0.497,0.302,-9.606,0.0,0.0,0.0,0.0,0.0,0.0,0.0,0.0,0.0
1580869123878849751,331,1580869123877693891,,0.150187946888,0.0194853375867,-0.991613625963,0.12570425068,0.0,0.0,0.0,0.0,0.0,0.0,0.0,0.0,0.0,0.000953,-4.6e-05,-0.001178,0.0,0.0,0.0,0.0,0.0,0.0,0.0,0.0,0.0,0.503,0.292,-9.594,0.0,0.0,0.0,0.0,0.0,0.0,0.0,0.0,0.0
1580869123902119725,332,1580869123901510000,,0.150170715521,0.019476285655,-0.991615989765,0.125686744507,0.0,0.0,0.0,0.0,0.0,0.0,0.0,0.0,0.0,-0.000133,-0.000122,-1.6e-05,0.0,0.0,0.0,0.0,0.0,0.0,0.0,0.0,0.0,0.463,0.317,-9.611,0.0,0.0,0.0,0.0,0.0,0.0,0.0,0.0,0.0
1580869123927146541,333,1580869123926572084,,0.150187990057,0.0194671400055,-0.991613104085,0.125712390675,0.0,0.0,0.0,0.0,0.0,0.0,0.0,0.0,0.0,0.001002,0.000643,-0.000877,0.0,0.0,0.0,0.0,0.0,0.0,0.0,0.0,0.0,0.485,0.316,-9.595,0.0,0.0,0.0,0.0,0.0,0.0,0.0,0.0,0.0
1580869123952139932,334,1580869123951503038,,0.150187990057,0.0194680306611,-0.991613965895,0.125703852214,0.0,0.0,0.0,0.0,0.0,0.0,0.0,0.0,0.0,-0.000465,0.000253,-0.000899,0.0,0.0,0.0,0.0,0.0,0.0,0.0,0.0,0.0,0.501,0.316,-9.608,0.0,0.0,0.0,0.0,0.0,0.0,0.0,0.0,0.0
1580869123977389139,335,1580869123976926088,,0.150205242971,0.0194675383343,-0.991610909839,0.12572969757,0.0,0.0,0.0,0.0,0.0,0.0,0.0,0.0,0.0,0.000664,0.000617,0.000649,0.0,0.0,0.0,0.0,0.0,0.0,0.0,0.0,0.0,0.469,0.322,-9.614,0.0,0.0,0.0,0.0,0.0,0.0,0.0,0.0,0.0
1580869124001874848,336,1580869124001271009,,0.15020522139,0.0194753008001,-0.991609877814,0.125738435082,0.0,0.0,0.0,0.0,0.0,0.0,0.0,0.0,0.0,-0.000279,0.000704,-0.000614,0.0,0.0,0.0,0.0,0.0,0.0,0.0,0.0,0.0,0.47,0.319,-9.594,0.0,0.0,0.0,0.0,0.0,0.0,0.0,0.0,0.0
1580869124027434651,337,1580869124026918888,,0.150205178193,0.0194926076543,-0.991609537755,0.125738833216,0.0,0.0,0.0,0.0,0.0,0.0,0.0,0.0,0.0,-0.000789,-5.8e-05,-0.000969,0.0,0.0,0.0,0.0,0.0,0.0,0.0,0.0,0.0,0.5,0.329,-9.599,0.0,0.0,0.0,0.0,0.0,0.0,0.0,0.0,0.0
1580869124052254735,338,1580869124051723003,,0.150205178193,0.0194934986406,-0.99161039984,0.125730295015,0.0,0.0,0.0,0.0,0.0,0.0,0.0,0.0,0.0,-0.000348,-0.00033,-0.000491,0.0,0.0,0.0,0.0,0.0,0.0,0.0,0.0,0.0,0.482,0.319,-9.629,0.0,0.0,0.0,0.0,0.0,0.0,0.0,0.0,0.0
1580869124077144040,339,1580869124076545953,,0.150222431054,0.0194956787244,-0.991609929302,0.125730525447,0.0,0.0,0.0,0.0,0.0,0.0,0.0,0.0,0.0,0.000452,3.4e-05,-0.00119,0.0,0.0,0.0,0.0,0.0,0.0,0.0,0.0,0.0,0.526,0.325,-9.572,0.0,0.0,0.0,0.0,0.0,0.0,0.0,0.0,0.0
1580869124102093182,340,1580869124101455926,,0.150239683869,0.0194987493266,-0.9916103201,0.125722217594,0.0,0.0,0.0,0.0,0.0,0.0,0.0,0.0,0.0,0.001728,0.000437,-0.000186,0.0,0.0,0.0,0.0,0.0,0.0,0.0,0.0,0.0,0.489,0.312,-9.595,0.0,0.0,0.0,0.0,0.0,0.0,0.0,0.0,0.0
1580869124126844753,341,1580869124126271009,,0.150248353468,0.0194834227006,-0.991611286107,0.12571339515,0.0,0.0,0.0,0.0,0.0,0.0,0.0,0.0,0.0,0.00041,0.000797,0.001065,0.0,0.0,0.0,0.0,0.0,0.0,0.0,0.0,0.0,0.494,0.305,-9.601,0.0,0.0,0.0,0.0,0.0,0.0,0.0,0.0,0.0
1580869124152036984,342,1580869124151390075,,0.150282880518,0.0194773487205,-0.991608790296,0.12573073217,0.0,0.0,0.0,0.0,0.0,0.0,0.0,0.0,0.0,-0.000607,-0.000455,1.5e-05,0.0,0.0,0.0,0.0,0.0,0.0,0.0,0.0,0.0,0.469,0.311,-9.635,0.0,0.0,0.0,0.0,0.0,0.0,0.0,0.0,0.0
1580869124176619596,343,1580869124176084995,,0.150239748662,0.0194745695636,-0.991612553111,0.125704542013,0.0,0.0,0.0,0.0,0.0,0.0,0.0,0.0,0.0,0.000785,-0.000559,-0.000351,0.0,0.0,0.0,0.0,0.0,0.0,0.0,0.0,0.0,0.468,0.31,-9.596,0.0,0.0,0.0,0.0,0.0,0.0,0.0,0.0,0.0
1580869124201772172,344,1580869124201200962,,0.150205242971,0.0194719908424,-0.991615218144,0.125687005187,0.0,0.0,0.0,0.0,0.0,0.0,0.0,0.0,0.0,-0.000208,0.000276,0.000758,0.0,0.0,0.0,0.0,0.0,0.0,0.0,0.0,0.0,0.459,0.305,-9.59,0.0,0.0,0.0,0.0,0.0,0.0,0.0,0.0,0.0
1580869124226623936,345,1580869124226090908,,0.1501621106,0.0194701032754,-0.99161984034,0.125652276235,0.0,0.0,0.0,0.0,0.0,0.0,0.0,0.0,0.0,-0.000895,0.000301,6.4e-05,0.0,0.0,0.0,0.0,0.0,0.0,0.0,0.0,0.0,0.472,0.327,-9.603,0.0,0.0,0.0,0.0,0.0,0.0,0.0,0.0,0.0
1580869124251815350,346,1580869124251162052,,0.150170737097,0.0194694127135,-0.991617882565,0.125669468268,0.0,0.0,0.0,0.0,0.0,0.0,0.0,0.0,0.0,-0.000561,0.000544,0.000829,0.0,0.0,0.0,0.0,0.0,0.0,0.0,0.0,0.0,0.468,0.324,-9.585,0.0,0.0,0.0,0.0,0.0,0.0,0.0,0.0,0.0
1580869124276945565,347,1580869124276374101,,0.150170693933,0.0194840486196,-0.991614958119,0.125695482061,0.0,0.0,0.0,0.0,0.0,0.0,0.0,0.0,0.0,-0.000254,-0.000555,2e-06,0.0,0.0,0.0,0.0,0.0,0.0,0.0,0.0,0.0,0.466,0.342,-9.588,0.0,0.0,0.0,0.0,0.0,0.0,0.0,0.0,0.0
1580869124301829767,348,1580869124301228046,,0.150213783012,0.0195023511969,-0.991609132446,0.125739147572,0.0,0.0,0.0,0.0,0.0,0.0,0.0,0.0,0.0,-0.000789,-0.000439,0.000248,0.0,0.0,0.0,0.0,0.0,0.0,0.0,0.0,0.0,0.487,0.293,-9.622,0.0,0.0,0.0,0.0,0.0,0.0,0.0,0.0,0.0
1580869124326999048,349,1580869124326489925,,0.150222431054,0.0194947878923,-0.991609067366,0.125739063662,0.0,0.0,0.0,0.0,0.0,0.0,0.0,0.0,0.0,0.000588,3e-05,0.002146,0.0,0.0,0.0,0.0,0.0,0.0,0.0,0.0,0.0,0.506,0.328,-9.615,0.0,0.0,0.0,0.0,0.0,0.0,0.0,0.0,0.0
1580869124351782549,350,1580869124351036071,,0.150248288637,0.0195067116526,-0.991608191026,0.12573960869,0.0,0.0,0.0,0.0,0.0,0.0,0.0,0.0,0.0,0.001124,0.000642,0.000756,0.0,0.0,0.0,0.0,0.0,0.0,0.0,0.0,0.0,0.514,0.313,-9.574,0.0,0.0,0.0,0.0,0.0,0.0,0.0,0.0,0.0
1580869124376907820,351,1580869124376167058,,0.150256915015,0.0195086922945,-0.991608817112,0.125731185777,0.0,0.0,0.0,0.0,0.0,0.0,0.0,0.0,0.0,0.000475,0.00043,0.000464,0.0,0.0,0.0,0.0,0.0,0.0,0.0,0.0,0.0,0.499,0.325,-9.567,0.0,0.0,0.0,0.0,0.0,0.0,0.0,0.0,0.0
1580869124404970647,352,1580869124403979063,,0.150291420411,0.0195103812795,-0.991605289441,0.125757261225,0.0,0.0,0.0,0.0,0.0,0.0,0.0,0.0,0.0,-0.000752,-0.000346,0.000384,0.0,0.0,0.0,0.0,0.0,0.0,0.0,0.0,0.0,0.487,0.296,-9.598,0.0,0.0,0.0,0.0,0.0,0.0,0.0,0.0,0.0
1580869124426747315,353,1580869124426146030,,0.150308694671,0.0195030178822,-0.991604126424,0.125765830102,0.0,0.0,0.0,0.0,0.0,0.0,0.0,0.0,0.0,-0.000985,-0.001377,-0.00068,0.0,0.0,0.0,0.0,0.0,0.0,0.0,0.0,0.0,0.457,0.304,-9.603,0.0,0.0,0.0,0.0,0.0,0.0,0.0,0.0,0.0
1580869124451539692,354,1580869124450974941,,0.150300111585,0.0194846207839,-0.99160470241,0.125765315623,0.0,0.0,0.0,0.0,0.0,0.0,0.0,0.0,0.0,0.000237,-0.001009,0.001164,0.0,0.0,0.0,0.0,0.0,0.0,0.0,0.0,0.0,0.485,0.309,-9.582,0.0,0.0,0.0,0.0,0.0,0.0,0.0,0.0,0.0
1580869124476390129,355,1580869124475843906,,0.150317364199,0.0194841292389,-0.991601645214,0.125791160733,0.0,0.0,0.0,0.0,0.0,0.0,0.0,0.0,0.0,0.000352,0.001949,0.000894,0.0,0.0,0.0,0.0,0.0,0.0,0.0,0.0,0.0,0.478,0.315,-9.579,0.0,0.0,0.0,0.0,0.0,0.0,0.0,0.0,0.0
1580869124501763070,356,1580869124501255035,,0.150291485261,0.0194826396267,-0.991604076128,0.125773738989,0.0,0.0,0.0,0.0,0.0,0.0,0.0,0.0,0.0,-0.000227,0.000874,-0.000259,0.0,0.0,0.0,0.0,0.0,0.0,0.0,0.0,0.0,0.465,0.302,-9.586,0.0,0.0,0.0,0.0,0.0,0.0,0.0,0.0,0.0
1580869124527162721,357,1580869124526185035,,0.150317364199,0.0194823469886,-0.991599920715,0.125808237412,0.0,0.0,0.0,0.0,0.0,0.0,0.0,0.0,0.0,-0.001144,0.000936,-0.000405,0.0,0.0,0.0,0.0,0.0,0.0,0.0,0.0,0.0,0.475,0.325,-9.617,0.0,0.0,0.0,0.0,0.0,0.0,0.0,0.0,0.0
1580869124551520237,358,1580869124550966978,,0.150325968879,0.0194911997613,-0.991598652738,0.125817090184,0.0,0.0,0.0,0.0,0.0,0.0,0.0,0.0,0.0,-0.000701,0.000549,0.000637,0.0,0.0,0.0,0.0,0.0,0.0,0.0,0.0,0.0,0.465,0.316,-9.614,0.0,0.0,0.0,0.0,0.0,0.0,0.0,0.0,0.0
1580869124576575845,359,1580869124575968027,,0.150360473919,0.0194919974737,-0.991594260289,0.125851703431,0.0,0.0,0.0,0.0,0.0,0.0,0.0,0.0,0.0,-0.000127,0.000653,0.000494,0.0,0.0,0.0,0.0,0.0,0.0,0.0,0.0,0.0,0.485,0.318,-9.595,0.0,0.0,0.0,0.0,0.0,0.0,0.0,0.0,0.0
1580869124601582091,360,1580869124600946903,,0.150394957144,0.0195014484155,-0.991589696488,0.125886515938,0.0,0.0,0.0,0.0,0.0,0.0,0.0,0.0,0.0,-0.000275,0.000344,-0.000995,0.0,0.0,0.0,0.0,0.0,0.0,0.0,0.0,0.0,0.487,0.343,-9.589,0.0,0.0,0.0,0.0,0.0,0.0,0.0,0.0,0.0
1580869124626426378,361,1580869124625772953,,0.150420835662,0.0195029387789,-0.991587263649,0.125903937565,0.0,0.0,0.0,0.0,0.0,0.0,0.0,0.0,0.0,0.000463,0.000666,-0.001054,0.0,0.0,0.0,0.0,0.0,0.0,0.0,0.0,0.0,0.503,0.324,-9.605,0.0,0.0,0.0,0.0,0.0,0.0,0.0,0.0,0.0
1580869124651883784,362,1580869124651302099,,0.150412209501,0.0195045229626,-0.991590088139,0.125878208093,0.0,0.0,0.0,0.0,0.0,0.0,0.0,0.0,0.0,0.000455,0.001747,0.000333,0.0,0.0,0.0,0.0,0.0,0.0,0.0,0.0,0.0,0.501,0.286,-9.597,0.0,0.0,0.0,0.0,0.0,0.0,0.0,0.0,0.0
1580869124676446169,363,1580869124675879955,,0.150438087951,0.0195060137021,-0.99158765522,0.1258956297,0.0,0.0,0.0,0.0,0.0,0.0,0.0,0.0,0.0,-0.000239,0.000674,-3.7e-05,0.0,0.0,0.0,0.0,0.0,0.0,0.0,0.0,0.0,0.513,0.323,-9.565,0.0,0.0,0.0,0.0,0.0,0.0,0.0,0.0,0.0
1580869124701736289,364,1580869124701195001,,0.15047259239,0.0195077045183,-0.991584123083,0.12592170446,0.0,0.0,0.0,0.0,0.0,0.0,0.0,0.0,0.0,-0.001063,0.000604,0.001154,0.0,0.0,0.0,0.0,0.0,0.0,0.0,0.0,0.0,0.482,0.312,-9.622,0.0,0.0,0.0,0.0,0.0,0.0,0.0,0.0,0.0
1580869124726084406,365,1580869124725621938,,0.150455361833,0.0194977599032,-0.991585627964,0.125912736439,0.0,0.0,0.0,0.0,0.0,0.0,0.0,0.0,0.0,0.000352,-0.00041,-0.000207,0.0,0.0,0.0,0.0,0.0,0.0,0.0,0.0,0.0,0.51,0.318,-9.645,0.0,0.0,0.0,0.0,0.0,0.0,0.0,0.0,0.0
1580869124751582208,366,1580869124751018047,,0.150481240115,0.0194983590469,-0.991582331236,0.125938696046,0.0,0.0,0.0,0.0,0.0,0.0,0.0,0.0,0.0,0.000485,1.5e-05,-1.3e-05,0.0,0.0,0.0,0.0,0.0,0.0,0.0,0.0,0.0,0.468,0.329,-9.583,0.0,0.0,0.0,0.0,0.0,0.0,0.0,0.0,0.0
1580869124776597047,367,1580869124775904893,,0.150472614033,0.0194972672001,-0.991582567011,0.125938581018,0.0,0.0,0.0,0.0,0.0,0.0,0.0,0.0,0.0,-9.3e-05,0.000633,-0.000426,0.0,0.0,0.0,0.0,0.0,0.0,0.0,0.0,0.0,0.477,0.335,-9.621,0.0,0.0,0.0,0.0,0.0,0.0,0.0,0.0,0.0
1580869124801213827,368,1580869124800652027,,0.150472614033,0.0194963749123,-0.991581703651,0.125947119167,0.0,0.0,0.0,0.0,0.0,0.0,0.0,0.0,0.0,0.000644,0.000651,-0.000142,0.0,0.0,0.0,0.0,0.0,0.0,0.0,0.0,0.0,0.474,0.322,-9.578,0.0,0.0,0.0,0.0,0.0,0.0,0.0,0.0,0.0
1580869124827002243,369,1580869124826013088,,0.15050713993,0.0194885199945,-0.991577476771,0.125981532263,0.0,0.0,0.0,0.0,0.0,0.0,0.0,0.0,0.0,0.000708,-0.000556,2.4e-05,0.0,0.0,0.0,0.0,0.0,0.0,0.0,0.0,0.0,0.474,0.303,-9.596,0.0,0.0,0.0,0.0,0.0,0.0,0.0,0.0,0.0
1580869124850973379,370,1580869124850517988,,0.150524391994,0.0194889191185,-0.991575277827,0.125998838535,0.0,0.0,0.0,0.0,0.0,0.0,0.0,0.0,0.0,0.000294,0.002337,-0.000364,0.0,0.0,0.0,0.0,0.0,0.0,0.0,0.0,0.0,0.476,0.317,-9.557,0.0,0.0,0.0,0.0,0.0,0.0,0.0,0.0,0.0
1580869124876413094,371,1580869124875804901,,0.150498492246,0.0194978661039,-0.991579269606,0.125964540546,0.0,0.0,0.0,0.0,0.0,0.0,0.0,0.0,0.0,-0.000806,0.001167,-0.001055,0.0,0.0,0.0,0.0,0.0,0.0,0.0,0.0,0.0,0.501,0.335,-9.597,0.0,0.0,0.0,0.0,0.0,0.0,0.0,0.0,0.0
1580869124901254218,372,1580869124900675058,,0.150481240115,0.0194974668361,-0.991581467951,0.125947234203,0.0,0.0,0.0,0.0,0.0,0.0,0.0,0.0,0.0,0.001784,-5.4e-05,-0.000215,0.0,0.0,0.0,0.0,0.0,0.0,0.0,0.0,0.0,0.505,0.308,-9.591,0.0,0.0,0.0,0.0,0.0,0.0,0.0,0.0,0.0
1580869124927807836,373,1580869124927068948,,0.150532996369,0.0195004498131,-0.991576599325,0.125982076876,0.0,0.0,0.0,0.0,0.0,0.0,0.0,0.0,0.0,-0.000244,0.00019,0.001627,0.0,0.0,0.0,0.0,0.0,0.0,0.0,0.0,0.0,0.498,0.322,-9.572,0.0,0.0,0.0,0.0,0.0,0.0,0.0,0.0,0.0
1580869124951698796,374,1580869124951138019,,0.150558895985,0.0194923960376,-0.991573470923,0.126007836467,0.0,0.0,0.0,0.0,0.0,0.0,0.0,0.0,0.0,0.000893,-0.000989,0.000876,0.0,0.0,0.0,0.0,0.0,0.0,0.0,0.0,0.0,0.511,0.303,-9.575,0.0,0.0,0.0,0.0,0.0,0.0,0.0,0.0,0.0
1580869124976660988,375,1580869124976156949,,0.150558895985,0.0194941810602,-0.991575198104,0.125990760059,0.0,0.0,0.0,0.0,0.0,0.0,0.0,0.0,0.0,0.000577,-1e-05,0.000242,0.0,0.0,0.0,0.0,0.0,0.0,0.0,0.0,0.0,0.485,0.327,-9.61,0.0,0.0,0.0,0.0,0.0,0.0,0.0,0.0,0.0
1580869125002180367,376,1580869125001579999,,0.150576126265,0.0195023414466,-0.991571965182,0.126016804343,0.0,0.0,0.0,0.0,0.0,0.0,0.0,0.0,0.0,0.000116,-0.00091,0.001644,0.0,0.0,0.0,0.0,0.0,0.0,0.0,0.0,0.0,0.496,0.32,-9.618,0.0,0.0,0.0,0.0,0.0,0.0,0.0,0.0,0.0
1580869125026153369,377,1580869125025511980,,0.150601982404,0.0195124868926,-0.99156935937,0.126034425415,0.0,0.0,0.0,0.0,0.0,0.0,0.0,0.0,0.0,0.001031,-5.4e-05,0.00162,0.0,0.0,0.0,0.0,0.0,0.0,0.0,0.0,0.0,0.486,0.315,-9.589,0.0,0.0,0.0,0.0,0.0,0.0,0.0,0.0,0.0
1580869125052506833,378,1580869125051623106,,0.150610608314,0.0195144721656,-0.991569986923,0.126026002415,0.0,0.0,0.0,0.0,0.0,0.0,0.0,0.0,0.0,-0.00033,0.000581,0.000602,0.0,0.0,0.0,0.0,0.0,0.0,0.0,0.0,0.0,0.464,0.311,-9.59,0.0,0.0,0.0,0.0,0.0,0.0,0.0,0.0,0.0
1580869125076037292,379,1580869125075412988,,0.150619277527,0.0194973660856,-0.991569227545,0.126034255344,0.0,0.0,0.0,0.0,0.0,0.0,0.0,0.0,0.0,0.000599,0.000133,0.000813,0.0,0.0,0.0,0.0,0.0,0.0,0.0,0.0,0.0,0.486,0.314,-9.595,0.0,0.0,0.0,0.0,0.0,0.0,0.0,0.0,0.0
1580869125102259620,380,1580869125101615905,,0.150576169546,0.0194868202556,-0.991574032608,0.125999328062,0.0,0.0,0.0,0.0,0.0,0.0,0.0,0.0,0.0,0.000474,0.000552,0.000678,0.0,0.0,0.0,0.0,0.0,0.0,0.0,0.0,0.0,0.476,0.333,-9.61,0.0,0.0,0.0,0.0,0.0,0.0,0.0,0.0,0.0
1580869125127036444,381,1580869125126415967,,0.150593464669,0.0194699141028,-0.991572173319,0.126016234215,0.0,0.0,0.0,0.0,0.0,0.0,0.0,0.0,0.0,0.000171,0.0005,0.000236,0.0,0.0,0.0,0.0,0.0,0.0,0.0,0.0,0.0,0.499,0.283,-9.588,0.0,0.0,0.0,0.0,0.0,0.0,0.0,0.0,0.0
1580869125152292815,382,1580869125151580095,,0.150593507862,0.0194517153501,-0.991571649278,0.126024372698,0.0,0.0,0.0,0.0,0.0,0.0,0.0,0.0,0.0,-0.00116,0.000264,0.000121,0.0,0.0,0.0,0.0,0.0,0.0,0.0,0.0,0.0,0.449,0.291,-9.604,0.0,0.0,0.0,0.0,0.0,0.0,0.0,0.0,0.0
1580869125177087808,383,1580869125176424980,,0.150610759709,0.0194521153104,-0.991569449587,0.126041678869,0.0,0.0,0.0,0.0,0.0,0.0,0.0,0.0,0.0,-0.000756,-0.000298,-0.000206,0.0,0.0,0.0,0.0,0.0,0.0,0.0,0.0,0.0,0.484,0.293,-9.581,0.0,0.0,0.0,0.0,0.0,0.0,0.0,0.0,0.0
1580869125202443208,384,1580869125201987981,,0.150610781292,0.0194443549309,-0.991570483162,0.126032940243,0.0,0.0,0.0,0.0,0.0,0.0,0.0,0.0,0.0,-0.000491,-0.000195,-0.000248,0.0,0.0,0.0,0.0,0.0,0.0,0.0,0.0,0.0,0.498,0.313,-9.581,0.0,0.0,0.0,0.0,0.0,0.0,0.0,0.0,0.0
1580869125227155016,385,1580869125226527929,,0.150610759709,0.019453008015,-0.99157031344,0.126033140303,0.0,0.0,0.0,0.0,0.0,0.0,0.0,0.0,0.0,-0.000923,0.000207,5.1e-05,0.0,0.0,0.0,0.0,0.0,0.0,0.0,0.0,0.0,0.47,0.329,-9.613,0.0,0.0,0.0,0.0,0.0,0.0,0.0,0.0,0.0
1580869125252168899,386,1580869125251580953,,0.150610738116,0.0194616610976,-0.991570143643,0.126033340354,0.0,0.0,0.0,0.0,0.0,0.0,0.0,0.0,0.0,0.000875,0.00153,0.00032,0.0,0.0,0.0,0.0,0.0,0.0,0.0,0.0,0.0,0.489,0.315,-9.591,0.0,0.0,0.0,0.0,0.0,0.0,0.0,0.0,0.0
1580869125276822462,387,1580869125276293992,,0.150619364021,0.0194636462593,-0.991570771149,0.126024916422,0.0,0.0,0.0,0.0,0.0,0.0,0.0,0.0,0.0,-0.001479,0.000205,0.000757,0.0,0.0,0.0,0.0,0.0,0.0,0.0,0.0,0.0,0.475,0.308,-9.598,0.0,0.0,0.0,0.0,0.0,0.0,0.0,0.0,0.0
1580869125302538327,388,1580869125302027940,,0.15057621278,0.0194712983823,-0.991576099198,0.125981851067,0.0,0.0,0.0,0.0,0.0,0.0,0.0,0.0,0.0,0.000403,0.000235,-0.000922,0.0,0.0,0.0,0.0,0.0,0.0,0.0,0.0,0.0,0.477,0.32,-9.593,0.0,0.0,0.0,0.0,0.0,0.0,0.0,0.0,0.0
1580869125326866625,389,1580869125326297998,,0.150541708866,0.0194704975847,-0.99158049619,0.125947238455,0.0,0.0,0.0,0.0,0.0,0.0,0.0,0.0,0.0,0.000498,7.9e-05,-0.000337,0.0,0.0,0.0,0.0,0.0,0.0,0.0,0.0,0.0,0.523,0.317,-9.63,0.0,0.0,0.0,0.0,0.0,0.0,0.0,0.0,0.0
1580869125352201456,390,1580869125351473093,,0.15058483873,0.0194723906046,-0.991575862928,0.125981965716,0.0,0.0,0.0,0.0,0.0,0.0,0.0,0.0,0.0,0.000134,0.001105,-0.000178,0.0,0.0,0.0,0.0,0.0,0.0,0.0,0.0,0.0,0.48,0.316,-9.616,0.0,0.0,0.0,0.0,0.0,0.0,0.0,0.0,0.0
1580869125376924449,391,1580869125376326084,,0.15058483873,0.019471498578,-0.991574999762,0.125990504196,0.0,0.0,0.0,0.0,0.0,0.0,0.0,0.0,0.0,0.000206,0.000346,-0.000785,0.0,0.0,0.0,0.0,0.0,0.0,0.0,0.0,0.0,0.495,0.274,-9.625,0.0,0.0,0.0,0.0,0.0,0.0,0.0,0.0,0.0
1580869125403843104,392,1580869125403162956,,0.150602112199,0.0194632458591,-0.991572970548,0.126007610229,0.0,0.0,0.0,0.0,0.0,0.0,0.0,0.0,0.0,0.000497,-0.00099,0.000422,0.0,0.0,0.0,0.0,0.0,0.0,0.0,0.0,0.0,0.483,0.32,-9.579,0.0,0.0,0.0,0.0,0.0,0.0,0.0,0.0,0.0
1580869125426941455,393,1580869125426265001,,0.150602133792,0.0194545927518,-0.991573140359,0.126007410022,0.0,0.0,0.0,0.0,0.0,0.0,0.0,0.0,0.0,-0.000618,-9.3e-05,0.000732,0.0,0.0,0.0,0.0,0.0,0.0,0.0,0.0,0.0,0.46,0.295,-9.56,0.0,0.0,0.0,0.0,0.0,0.0,0.0,0.0,0.0
1580869125452164658,394,1580869125451426029,,0.150610781292,0.019445247474,-0.991571346874,0.126024401584,0.0,0.0,0.0,0.0,0.0,0.0,0.0,0.0,0.0,0.001202,-0.000514,-0.001091,0.0,0.0,0.0,0.0,0.0,0.0,0.0,0.0,0.0,0.486,0.291,-9.586,0.0,0.0,0.0,0.0,0.0,0.0,0.0,0.0,0.0
1580869125476862642,395,1580869125476377964,,0.150653932292,0.0194384878883,-0.991566880684,0.126058928074,0.0,0.0,0.0,0.0,0.0,0.0,0.0,0.0,0.0,-0.000209,0.000464,0.00039,0.0,0.0,0.0,0.0,0.0,0.0,0.0,0.0,0.0,0.485,0.305,-9.602,0.0,0.0,0.0,0.0,0.0,0.0,0.0,0.0,0.0
1580869125501826854,396,1580869125501260042,,0.150653910715,0.0194471409409,-0.991566711013,0.126059128291,0.0,0.0,0.0,0.0,0.0,0.0,0.0,0.0,0.0,-0.000673,0.000434,0.000484,0.0,0.0,0.0,0.0,0.0,0.0,0.0,0.0,0.0,0.479,0.317,-9.632,0.0,0.0,0.0,0.0,0.0,0.0,0.0,0.0,0.0
1580869125527071179,397,1580869125526387929,,0.150636637394,0.0194553935846,-0.991568741267,0.126042022378,0.0,0.0,0.0,0.0,0.0,0.0,0.0,0.0,0.0,-0.000351,0.001175,-0.000541,0.0,0.0,0.0,0.0,0.0,0.0,0.0,0.0,0.0,0.508,0.304,-9.616,0.0,0.0,0.0,0.0,0.0,0.0,0.0,0.0,0.0
1580869125552017716,398,1580869125551410913,,0.150627989915,0.019462953899,-0.99156880764,0.126042108009,0.0,0.0,0.0,0.0,0.0,0.0,0.0,0.0,0.0,0.001151,-4.5e-05,-0.000132,0.0,0.0,0.0,0.0,0.0,0.0,0.0,0.0,0.0,0.473,0.341,-9.568,0.0,0.0,0.0,0.0,0.0,0.0,0.0,0.0,0.0
1580869125577048618,399,1580869125576302051,,0.150619342415,0.0194731916806,-0.991571464724,0.126016578166,0.0,0.0,0.0,0.0,0.0,0.0,0.0,0.0,0.0,-5.5e-05,0.000162,-0.000456,0.0,0.0,0.0,0.0,0.0,0.0,0.0,0.0,0.0,0.489,0.304,-9.614,0.0,0.0,0.0,0.0,0.0,0.0,0.0,0.0,0.0
1580869125601992355,400,1580869125601489067,,0.150619364021,0.0194636462593,-0.991570771149,0.126024916422,0.0,0.0,0.0,0.0,0.0,0.0,0.0,0.0,0.0,-0.000594,0.000164,-0.000219,0.0,0.0,0.0,0.0,0.0,0.0,0.0,0.0,0.0,0.479,0.331,-9.614,0.0,0.0,0.0,0.0,0.0,0.0,0.0,0.0,0.0
1580869125626974524,401,1580869125626496076,,0.150602112199,0.0194632458591,-0.991572970548,0.126007610229,0.0,0.0,0.0,0.0,0.0,0.0,0.0,0.0,0.0,-0.000325,1.5e-05,0.001197,0.0,0.0,0.0,0.0,0.0,0.0,0.0,0.0,0.0,0.478,0.307,-9.601,0.0,0.0,0.0,0.0,0.0,0.0,0.0,0.0,0.0
1580869125651986885,402,1580869125651338100,,0.150593464669,0.0194725908758,-0.991574763491,0.125990618843,0.0,0.0,0.0,0.0,0.0,0.0,0.0,0.0,0.0,-0.000295,-0.000881,-0.000542,0.0,0.0,0.0,0.0,0.0,0.0,0.0,0.0,0.0,0.486,0.314,-9.605,0.0,0.0,0.0,0.0,0.0,0.0,0.0,0.0,0.0
1580869125676691322,403,1580869125676068067,,0.150567608418,0.0194633369061,-0.991578231465,0.125964459153,0.0,0.0,0.0,0.0,0.0,0.0,0.0,0.0,0.0,-5.7e-05,-0.000491,0.002114,0.0,0.0,0.0,0.0,0.0,0.0,0.0,0.0,0.0,0.501,0.36,-9.579,0.0,0.0,0.0,0.0,0.0,0.0,0.0,0.0,0.0
1580869125701554388,404,1580869125700999021,,0.150602133792,0.0194554849174,-0.991574003691,0.125998871403,0.0,0.0,0.0,0.0,0.0,0.0,0.0,0.0,0.0,0.000828,-0.000831,0.000661,0.0,0.0,0.0,0.0,0.0,0.0,0.0,0.0,0.0,0.481,0.317,-9.596,0.0,0.0,0.0,0.0,0.0,0.0,0.0,0.0,0.0
1580869125726552523,405,1580869125725980043,,0.150610781292,0.019446139863,-0.991572210437,0.126015862911,0.0,0.0,0.0,0.0,0.0,0.0,0.0,0.0,0.0,-0.000944,-0.001549,-0.000472,0.0,0.0,0.0,0.0,0.0,0.0,0.0,0.0,0.0,0.481,0.312,-9.578,0.0,0.0,0.0,0.0,0.0,0.0,0.0,0.0,0.0
1580869125751626153,406,1580869125751153945,,0.150619407199,0.0194472323936,-0.991571974191,0.126015977325,0.0,0.0,0.0,0.0,0.0,0.0,0.0,0.0,0.0,-0.001054,0.0005,-0.000227,0.0,0.0,0.0,0.0,0.0,0.0,0.0,0.0,0.0,0.469,0.314,-9.601,0.0,0.0,0.0,0.0,0.0,0.0,0.0,0.0,0.0
1580869125777595203,407,1580869125776704072,,0.150593507862,0.0194552846285,-0.9915751032,0.125990218283,0.0,0.0,0.0,0.0,0.0,0.0,0.0,0.0,0.0,-0.000345,0.000229,-0.000219,0.0,0.0,0.0,0.0,0.0,0.0,0.0,0.0,0.0,0.476,0.329,-9.575,0.0,0.0,0.0,0.0,0.0,0.0,0.0,0.0,0.0
1580869125801774864,408,1580869125801120996,,0.150567608418,0.0194606608487,-0.991575641941,0.125990074825,0.0,0.0,0.0,0.0,0.0,0.0,0.0,0.0,0.0,-0.000198,-0.001485,0.001476,0.0,0.0,0.0,0.0,0.0,0.0,0.0,0.0,0.0,0.489,0.318,-9.615,0.0,0.0,0.0,0.0,0.0,0.0,0.0,0.0,0.0
1580869125826936922,409,1580869125825927019,,0.150541730462,0.0194600606815,-0.991578940013,0.125964115392,0.0,0.0,0.0,0.0,0.0,0.0,0.0,0.0,0.0,-0.000121,0.001098,-0.001087,0.0,0.0,0.0,0.0,0.0,0.0,0.0,0.0,0.0,0.477,0.324,-9.628,0.0,0.0,0.0,0.0,0.0,0.0,0.0,0.0,0.0
1580869125851885079,410,1580869125851315021,,0.15057621278,0.0194704062786,-0.991575235957,0.125990389539,0.0,0.0,0.0,0.0,0.0,0.0,0.0,0.0,0.0,-0.000228,0.000729,-0.000542,0.0,0.0,0.0,0.0,0.0,0.0,0.0,0.0,0.0,0.491,0.309,-9.592,0.0,0.0,0.0,0.0,0.0,0.0,0.0,0.0,0.0
1580869125876375614,411,1580869125875808000,,0.150627989915,0.019462953899,-0.99156880764,0.126042108009,0.0,0.0,0.0,0.0,0.0,0.0,0.0,0.0,0.0,-0.000126,0.000632,-7.2e-05,0.0,0.0,0.0,0.0,0.0,0.0,0.0,0.0,0.0,0.496,0.344,-9.608,0.0,0.0,0.0,0.0,0.0,0.0,0.0,0.0,0.0
1580869125901449324,412,1580869125900856018,,0.150662471762,0.0194733002724,-0.991565101432,0.126068381926,0.0,0.0,0.0,0.0,0.0,0.0,0.0,0.0,0.0,-2e-06,0.000177,6.1e-05,0.0,0.0,0.0,0.0,0.0,0.0,0.0,0.0,0.0,0.475,0.313,-9.594,0.0,0.0,0.0,0.0,0.0,0.0,0.0,0.0,0.0
1580869125926348933,413,1580869125925766944,,0.150688349233,0.0194739008105,-0.99156180063,0.126094340996,0.0,0.0,0.0,0.0,0.0,0.0,0.0,0.0,0.0,-0.000405,-0.000211,0.001254,0.0,0.0,0.0,0.0,0.0,0.0,0.0,0.0,0.0,0.49,0.322,-9.565,0.0,0.0,0.0,0.0,0.0,0.0,0.0,0.0,0.0
1580869125951438804,414,1580869125950822114,,0.150714248221,0.0194667415284,-0.99155953335,0.126111561359,0.0,0.0,0.0,0.0,0.0,0.0,0.0,0.0,0.0,0.000171,0.000324,0.000303,0.0,0.0,0.0,0.0,0.0,0.0,0.0,0.0,0.0,0.481,0.325,-9.591,0.0,0.0,0.0,0.0,0.0,0.0,0.0,0.0,0.0
1580869125976420646,415,1580869125975819110,,0.150757376944,0.0194686362116,-0.991554894267,0.126146287764,0.0,0.0,0.0,0.0,0.0,0.0,0.0,0.0,0.0,-0.000138,0.000115,0.000121,0.0,0.0,0.0,0.0,0.0,0.0,0.0,0.0,0.0,0.454,0.318,-9.612,0.0,0.0,0.0,0.0,0.0,0.0,0.0,0.0,0.0
1580869126001745050,416,1580869126001224994,,0.150757376944,0.0194677428064,-0.991554029751,0.126154826185,0.0,0.0,0.0,0.0,0.0,0.0,0.0,0.0,0.0,0.000299,-0.000947,-0.000924,0.0,0.0,0.0,0.0,0.0,0.0,0.0,0.0,0.0,0.502,0.33,-9.623,0.0,0.0,0.0,0.0,0.0,0.0,0.0,0.0,0.0
1580869126026245824,417,1580869126025680065,,0.150748772835,0.0194597829228,-0.991556164919,0.126137434475,0.0,0.0,0.0,0.0,0.0,0.0,0.0,0.0,0.0,8.2e-05,0.000523,0.000356,0.0,0.0,0.0,0.0,0.0,0.0,0.0,0.0,0.0,0.495,0.32,-9.568,0.0,0.0,0.0,0.0,0.0,0.0,0.0,0.0,0.0
1580869126051567743,418,1580869126050967931,,0.150722873988,0.0194678348841,-0.991559296999,0.126111675892,0.0,0.0,0.0,0.0,0.0,0.0,0.0,0.0,0.0,-0.000161,0.000571,9.7e-05,0.0,0.0,0.0,0.0,0.0,0.0,0.0,0.0,0.0,0.478,0.314,-9.622,0.0,0.0,0.0,0.0,0.0,0.0,0.0,0.0,0.0
1580869126076393044,419,1580869126075769901,,0.150705600823,0.0194743011618,-0.991559599717,0.126111646995,0.0,0.0,0.0,0.0,0.0,0.0,0.0,0.0,0.0,-0.000107,-0.000528,-0.000219,0.0,0.0,0.0,0.0,0.0,0.0,0.0,0.0,0.0,0.473,0.331,-9.57,0.0,0.0,0.0,0.0,0.0,0.0,0.0,0.0,0.0
1580869126101784706,420,1580869126101093053,,0.150679680157,0.019491006667,-0.991562560942,0.12608608832,0.0,0.0,0.0,0.0,0.0,0.0,0.0,0.0,0.0,-0.000263,-0.001027,-0.001299,0.0,0.0,0.0,0.0,0.0,0.0,0.0,0.0,0.0,0.49,0.316,-9.614,0.0,0.0,0.0,0.0,0.0,0.0,0.0,0.0,0.0
1580869126126299962,421,1580869126125688076,,0.150671054336,0.0194916993186,-0.991564525109,0.126068897049,0.0,0.0,0.0,0.0,0.0,0.0,0.0,0.0,0.0,0.000457,0.000227,-0.000222,0.0,0.0,0.0,0.0,0.0,0.0,0.0,0.0,0.0,0.513,0.307,-9.584,0.0,0.0,0.0,0.0,0.0,0.0,0.0,0.0,0.0
1580869126151161996,422,1580869126150582075,,0.150679658507,0.0195014453206,-0.99156411859,0.126069212128,0.0,0.0,0.0,0.0,0.0,0.0,0.0,0.0,0.0,-0.000374,-0.00034,-7.6e-05,0.0,0.0,0.0,0.0,0.0,0.0,0.0,0.0,0.0,0.475,0.313,-9.575,0.0,0.0,0.0,0.0,0.0,0.0,0.0,0.0,0.0
1580869126176561417,423,1580869126176060914,,0.150679658507,0.0195014453206,-0.99156411859,0.126069212128,0.0,0.0,0.0,0.0,0.0,0.0,0.0,0.0,0.0,-0.0002,0.00018,3.3e-05,0.0,0.0,0.0,0.0,0.0,0.0,0.0,0.0,0.0,0.482,0.313,-9.627,0.0,0.0,0.0,0.0,0.0,0.0,0.0,0.0,0.0
1580869126202129471,424,1580869126201540946,,0.15069688845,0.0195104989347,-0.991561747893,0.126086718463,0.0,0.0,0.0,0.0,0.0,0.0,0.0,0.0,0.0,0.000267,0.000476,0.001038,0.0,0.0,0.0,0.0,0.0,0.0,0.0,0.0,0.0,0.498,0.335,-9.615,0.0,0.0,0.0,0.0,0.0,0.0,0.0,0.0,0.0
1580869126226235243,425,1580869126225625991,,0.150653737688,0.0195181505157,-0.99156707823,0.126043653594,0.0,0.0,0.0,0.0,0.0,0.0,0.0,0.0,0.0,0.000627,-0.000676,8.7e-05,0.0,0.0,0.0,0.0,0.0,0.0,0.0,0.0,0.0,0.486,0.31,-9.598,0.0,0.0,0.0,0.0,0.0,0.0,0.0,0.0,0.0
1580869126252666959,426,1580869126252054929,,0.150670989357,0.0195194436172,-0.991565741777,0.126052421635,0.0,0.0,0.0,0.0,0.0,0.0,0.0,0.0,0.0,0.000148,-0.000478,0.001198,0.0,0.0,0.0,0.0,0.0,0.0,0.0,0.0,0.0,0.487,0.297,-9.558,0.0,0.0,0.0,0.0,0.0,0.0,0.0,0.0,0.0
1580869126277344973,427,1580869126276741027,,0.150636529293,0.0195004437829,-0.991569618453,0.126025946861,0.0,0.0,0.0,0.0,0.0,0.0,0.0,0.0,0.0,0.000619,-7.1e-05,0.000882,0.0,0.0,0.0,0.0,0.0,0.0,0.0,0.0,0.0,0.487,0.299,-9.577,0.0,0.0,0.0,0.0,0.0,0.0,0.0,0.0,0.0
1580869126302108229,428,1580869126301515102,,0.150679658507,0.0195014453206,-0.99156411859,0.126069212128,0.0,0.0,0.0,0.0,0.0,0.0,0.0,0.0,0.0,-0.000952,-9.8e-05,9.2e-05,0.0,0.0,0.0,0.0,0.0,0.0,0.0,0.0,0.0,0.494,0.317,-9.574,0.0,0.0,0.0,0.0,0.0,0.0,0.0,0.0,0.0
1580869126327484556,429,1580869126326889038,,0.150662385198,0.0195096977577,-0.991566148545,0.126052106352,0.0,0.0,0.0,0.0,0.0,0.0,0.0,0.0,0.0,0.000592,0.001089,-8.4e-05,0.0,0.0,0.0,0.0,0.0,0.0,0.0,0.0,0.0,0.498,0.329,-9.608,0.0,0.0,0.0,0.0,0.0,0.0,0.0,0.0,0.0
1580869126352267851,430,1580869126351728916,,0.150722765768,0.0195119927826,-0.99155931064,0.126104139364,0.0,0.0,0.0,0.0,0.0,0.0,0.0,0.0,0.0,0.000638,-0.000464,-0.000202,0.0,0.0,0.0,0.0,0.0,0.0,0.0,0.0,0.0,0.488,0.32,-9.613,0.0,0.0,0.0,0.0,0.0,0.0,0.0,0.0,0.0
1580869126377083361,431,1580869126376486063,,0.150765872717,0.0195216475217,-0.991553637045,0.126147604532,0.0,0.0,0.0,0.0,0.0,0.0,0.0,0.0,0.0,-0.000928,-9e-06,-0.00064,0.0,0.0,0.0,0.0,0.0,0.0,0.0,0.0,0.0,0.49,0.306,-9.591,0.0,0.0,0.0,0.0,0.0,0.0,0.0,0.0,0.0
1580869126402051786,432,1580869126401437044,,0.150774498409,0.0195218478677,-0.991552536161,0.126156257465,0.0,0.0,0.0,0.0,0.0,0.0,0.0,0.0,0.0,0.001248,0.000939,-0.000431,0.0,0.0,0.0,0.0,0.0,0.0,0.0,0.0,0.0,0.479,0.309,-9.584,0.0,0.0,0.0,0.0,0.0,0.0,0.0,0.0,0.0
1580869126427237151,433,1580869126426692008,,0.150757268698,0.019512794226,-0.991554908171,0.126138751237,0.0,0.0,0.0,0.0,0.0,0.0,0.0,0.0,0.0,-0.00014,-0.001759,0.000356,0.0,0.0,0.0,0.0,0.0,0.0,0.0,0.0,0.0,0.504,0.318,-9.616,0.0,0.0,0.0,0.0,0.0,0.0,0.0,0.0,0.0
1580869126452249380,434,1580869126451611042,,0.150740038926,0.0195046335117,-0.991558143834,0.126112706795,0.0,0.0,0.0,0.0,0.0,0.0,0.0,0.0,0.0,0.00069,0.000185,-0.001183,0.0,0.0,0.0,0.0,0.0,0.0,0.0,0.0,0.0,0.481,0.305,-9.612,0.0,0.0,0.0,0.0,0.0,0.0,0.0,0.0,0.0
1580869126476715770,435,1580869126476216077,,0.150765916075,0.0195061278977,-0.991555705984,0.126130127533,0.0,0.0,0.0,0.0,0.0,0.0,0.0,0.0,0.0,0.000632,-0.000219,0.000678,0.0,0.0,0.0,0.0,0.0,0.0,0.0,0.0,0.0,0.512,0.325,-9.624,0.0,0.0,0.0,0.0,0.0,0.0,0.0,0.0,0.0
1580869126502367074,436,1580869126501765012,,0.150722809091,0.0194955796167,-0.991560514934,0.126095200367,0.0,0.0,0.0,0.0,0.0,0.0,0.0,0.0,0.0,0.000487,-0.001069,0.000148,0.0,0.0,0.0,0.0,0.0,0.0,0.0,0.0,0.0,0.482,0.329,-9.576,0.0,0.0,0.0,0.0,0.0,0.0,0.0,0.0,0.0
1580869126527338342,437,1580869126526806116,,0.150714183327,0.0194953791559,-0.991561615285,0.126086547364,0.0,0.0,0.0,0.0,0.0,0.0,0.0,0.0,0.0,-0.000101,0.00047,-7.5e-05,0.0,0.0,0.0,0.0,0.0,0.0,0.0,0.0,0.0,0.483,0.328,-9.621,0.0,0.0,0.0,0.0,0.0,0.0,0.0,0.0,0.0
1580869126551958388,438,1580869126551317930,,0.150714183327,0.0194953791559,-0.991561615285,0.126086547364,0.0,0.0,0.0,0.0,0.0,0.0,0.0,0.0,0.0,-0.00071,0.000782,0.000258,0.0,0.0,0.0,0.0,0.0,0.0,0.0,0.0,0.0,0.474,0.304,-9.601,0.0,0.0,0.0,0.0,0.0,0.0,0.0,0.0,0.0
1580869126577096747,439,1580869126576507091,,0.150731456488,0.0194880198142,-0.991560448433,0.126095114561,0.0,0.0,0.0,0.0,0.0,0.0,0.0,0.0,0.0,0.000657,0.000969,-0.000418,0.0,0.0,0.0,0.0,0.0,0.0,0.0,0.0,0.0,0.49,0.314,-9.595,0.0,0.0,0.0,0.0,0.0,0.0,0.0,0.0,0.0
1580869126602047668,440,1580869126601443052,,0.150696953405,0.0194872176218,-0.991564849379,0.126060502495,0.0,0.0,0.0,0.0,0.0,0.0,0.0,0.0,0.0,-0.000357,-4.4e-05,0.000354,0.0,0.0,0.0,0.0,0.0,0.0,0.0,0.0,0.0,0.492,0.316,-9.604,0.0,0.0,0.0,0.0,0.0,0.0,0.0,0.0,0.0
1580869126627355720,441,1580869126626665115,,0.150722830735,0.0194887117645,-0.991562412389,0.126077923201,0.0,0.0,0.0,0.0,0.0,0.0,0.0,0.0,0.0,-0.000135,0.001042,-0.000589,0.0,0.0,0.0,0.0,0.0,0.0,0.0,0.0,0.0,0.47,0.324,-9.636,0.0,0.0,0.0,0.0,0.0,0.0,0.0,0.0,0.0
1580869126651888115,442,1580869126651216030,,0.150731456488,0.0194898048066,-0.991562175645,0.126078037845,0.0,0.0,0.0,0.0,0.0,0.0,0.0,0.0,0.0,0.000689,0.001586,-0.000294,0.0,0.0,0.0,0.0,0.0,0.0,0.0,0.0,0.0,0.479,0.33,-9.591,0.0,0.0,0.0,0.0,0.0,0.0,0.0,0.0,0.0
1580869126676658942,443,1580869126676035881,,0.150740060584,0.019498658507,-0.991560905249,0.126086891546,0.0,0.0,0.0,0.0,0.0,0.0,0.0,0.0,0.0,-0.000198,-0.000782,0.001419,0.0,0.0,0.0,0.0,0.0,0.0,0.0,0.0,0.0,0.498,0.331,-9.608,0.0,0.0,0.0,0.0,0.0,0.0,0.0,0.0,0.0
1580869126702304847,444,1580869126701818943,,0.150705535898,0.0195065087818,-0.991565135719,0.126052480153,0.0,0.0,0.0,0.0,0.0,0.0,0.0,0.0,0.0,-0.000173,0.000351,9e-06,0.0,0.0,0.0,0.0,0.0,0.0,0.0,0.0,0.0,0.514,0.321,-9.58,0.0,0.0,0.0,0.0,0.0,0.0,0.0,0.0,0.0
1580869126726833917,445,1580869126726219892,,0.150722787435,0.0195078023509,-0.99156379883,0.126061247976,0.0,0.0,0.0,0.0,0.0,0.0,0.0,0.0,0.0,-0.000407,0.000383,0.000598,0.0,0.0,0.0,0.0,0.0,0.0,0.0,0.0,0.0,0.493,0.329,-9.627,0.0,0.0,0.0,0.0,0.0,0.0,0.0,0.0,0.0
1580869126752097116,446,1580869126751108884,,0.150731413186,0.0195097872071,-0.991564424987,0.1260528245,0.0,0.0,0.0,0.0,0.0,0.0,0.0,0.0,0.0,-6.8e-05,-0.00014,0.000137,0.0,0.0,0.0,0.0,0.0,0.0,0.0,0.0,0.0,0.503,0.322,-9.597,0.0,0.0,0.0,0.0,0.0,0.0,0.0,0.0,0.0
1580869126777009965,447,1580869126776046991,,0.150765916075,0.0195114829654,-0.991560887528,0.12607889831,0.0,0.0,0.0,0.0,0.0,0.0,0.0,0.0,0.0,-0.000477,-0.000399,0.000475,0.0,0.0,0.0,0.0,0.0,0.0,0.0,0.0,0.0,0.475,0.306,-9.584,0.0,0.0,0.0,0.0,0.0,0.0,0.0,0.0,0.0
1580869126801997326,448,1580869126801485061,,0.150774563432,0.0195048148838,-0.991561683631,0.126070273654,0.0,0.0,0.0,0.0,0.0,0.0,0.0,0.0,0.0,0.000932,0.000426,-0.000118,0.0,0.0,0.0,0.0,0.0,0.0,0.0,0.0,0.0,0.481,0.308,-9.614,0.0,0.0,0.0,0.0,0.0,0.0,0.0,0.0,0.0
1580869126826688293,449,1580869126826071977,,0.15078323241,0.0194877100274,-0.991560923699,0.126078524352,0.0,0.0,0.0,0.0,0.0,0.0,0.0,0.0,0.0,0.000972,2.3e-05,-0.000826,0.0,0.0,0.0,0.0,0.0,0.0,0.0,0.0,0.0,0.483,0.318,-9.583,0.0,0.0,0.0,0.0,0.0,0.0,0.0,0.0,0.0
1580869126851564713,450,1580869126850999116,,0.150791858084,0.0194879111885,-0.991559823418,0.126087177349,0.0,0.0,0.0,0.0,0.0,0.0,0.0,0.0,0.0,0.000344,-0.001043,0.000515,0.0,0.0,0.0,0.0,0.0,0.0,0.0,0.0,0.0,0.479,0.307,-9.593,0.0,0.0,0.0,0.0,0.0,0.0,0.0,0.0,0.0
1580869126876692525,451,1580869126876104116,,0.15078323241,0.0194868180777,-0.991560060606,0.12608706284,0.0,0.0,0.0,0.0,0.0,0.0,0.0,0.0,0.0,-0.001053,-0.000116,0.000854,0.0,0.0,0.0,0.0,0.0,0.0,0.0,0.0,0.0,0.476,0.314,-9.597,0.0,0.0,0.0,0.0,0.0,0.0,0.0,0.0,0.0
1580869126901951704,452,1580869126901433944,,0.150800483747,0.0194872202445,-0.991557859821,0.126104368808,0.0,0.0,0.0,0.0,0.0,0.0,0.0,0.0,0.0,0.000881,0.00089,-0.000125,0.0,0.0,0.0,0.0,0.0,0.0,0.0,0.0,0.0,0.471,0.325,-9.601,0.0,0.0,0.0,0.0,0.0,0.0,0.0,0.0,0.0
1580869126926682002,453,1580869126926104068,,0.150800462103,0.0194958732184,-0.991557689725,0.126104569886,0.0,0.0,0.0,0.0,0.0,0.0,0.0,0.0,0.0,-0.000715,0.000391,-0.000307,0.0,0.0,0.0,0.0,0.0,0.0,0.0,0.0,0.0,0.487,0.33,-9.592,0.0,0.0,0.0,0.0,0.0,0.0,0.0,0.0,0.0
1580869126951728742,454,1580869126951153993,,0.150834942975,0.0195053304298,-0.991553117063,0.126139382763,0.0,0.0,0.0,0.0,0.0,0.0,0.0,0.0,0.0,-7.3e-05,-0.001047,0.000891,0.0,0.0,0.0,0.0,0.0,0.0,0.0,0.0,0.0,0.485,0.32,-9.612,0.0,0.0,0.0,0.0,0.0,0.0,0.0,0.0,0.0
1580869126976842301,455,1580869126976247072,,0.150869466983,0.0194983744765,-0.991549747379,0.126165255029,0.0,0.0,0.0,0.0,0.0,0.0,0.0,0.0,0.0,-0.000504,0.000317,-0.000635,0.0,0.0,0.0,0.0,0.0,0.0,0.0,0.0,0.0,0.478,0.328,-9.585,0.0,0.0,0.0,0.0,0.0,0.0,0.0,0.0,0.0
1580869127002143820,456,1580869127001605033,,0.150860819749,0.0195077187548,-0.991551541747,0.126148264973,0.0,0.0,0.0,0.0,0.0,0.0,0.0,0.0,0.0,0.00064,0.00017,0.000701,0.0,0.0,0.0,0.0,0.0,0.0,0.0,0.0,0.0,0.48,0.318,-9.597,0.0,0.0,0.0,0.0,0.0,0.0,0.0,0.0,0.0
1580869127026878532,457,1580869127025897026,,0.150852215832,0.0194997568831,-0.991553676141,0.126130872456,0.0,0.0,0.0,0.0,0.0,0.0,0.0,0.0,0.0,0.000487,0.001274,2e-06,0.0,0.0,0.0,0.0,0.0,0.0,0.0,0.0,0.0,0.466,0.315,-9.588,0.0,0.0,0.0,0.0,0.0,0.0,0.0,0.0,0.0
1580869127051652761,458,1580869127050847053,,0.150834964635,0.0195002462485,-0.991556740474,0.12610502815,0.0,0.0,0.0,0.0,0.0,0.0,0.0,0.0,0.0,8.1e-05,-0.000223,-0.000341,0.0,0.0,0.0,0.0,0.0,0.0,0.0,0.0,0.0,0.501,0.284,-9.6,0.0,0.0,0.0,0.0,0.0,0.0,0.0,0.0,0.0
1580869127076456789,459,1580869127075886964,,0.150809109398,0.0194900974056,-0.991559348816,0.126087406338,0.0,0.0,0.0,0.0,0.0,0.0,0.0,0.0,0.0,0.000164,-0.000345,-0.000505,0.0,0.0,0.0,0.0,0.0,0.0,0.0,0.0,0.0,0.468,0.308,-9.573,0.0,0.0,0.0,0.0,0.0,0.0,0.0,0.0,0.0
1580869127101700657,460,1580869127100867033,,0.150774606724,0.0194884005834,-0.991562886773,0.126061332836,0.0,0.0,0.0,0.0,0.0,0.0,0.0,0.0,0.0,-0.000711,-0.000371,0.000888,0.0,0.0,0.0,0.0,0.0,0.0,0.0,0.0,0.0,0.478,0.334,-9.636,0.0,0.0,0.0,0.0,0.0,0.0,0.0,0.0,0.0
1580869127126876359,461,1580869127125817060,,0.15078323241,0.0194877100274,-0.991560923699,0.126078524352,0.0,0.0,0.0,0.0,0.0,0.0,0.0,0.0,0.0,0.000301,-0.000362,0.000723,0.0,0.0,0.0,0.0,0.0,0.0,0.0,0.0,0.0,0.487,0.312,-9.591,0.0,0.0,0.0,0.0,0.0,0.0,0.0,0.0,0.0
1580869127151615112,462,1580869127150793075,,0.150774606724,0.0194884005834,-0.991562886773,0.126061332836,0.0,0.0,0.0,0.0,0.0,0.0,0.0,0.0,0.0,-0.001283,0.001746,0.000883,0.0,0.0,0.0,0.0,0.0,0.0,0.0,0.0,0.0,0.477,0.3,-9.582,0.0,0.0,0.0,0.0,0.0,0.0,0.0,0.0,0.0
