%time,field.header.seq,field.header.stamp,field.header.frame_id,field.orientation.x,field.orientation.y,field.orientation.z,field.orientation.w,field.orientation_covariance0,field.orientation_covariance1,field.orientation_covariance2,field.orientation_covariance3,field.orientation_covariance4,field.orientation_covariance5,field.orientation_covariance6,field.orientation_covariance7,field.orientation_covariance8,field.angular_velocity.x,field.angular_velocity.y,field.angular_velocity.z,field.angular_velocity_covariance0,field.angular_velocity_covariance1,field.angular_velocity_covariance2,field.angular_velocity_covariance3,field.angular_velocity_covariance4,field.angular_velocity_covariance5,field.angular_velocity_covariance6,field.angular_velocity_covariance7,field.angular_velocity_covariance8,field.linear_acceleration.x,field.linear_acceleration.y,field.linear_acceleration.z,field.linear_acceleration_covariance0,field.linear_acceleration_covariance1,field.linear_acceleration_covariance2,field.linear_acceleration_covariance3,field.linear_acceleration_covariance4,field.linear_acceleration_covariance5,field.linear_acceleration_covariance6,field.linear_acceleration_covariance7,field.linear_acceleration_covariance8
1581113223636832500,1,1581113223636612892,,0.865005745783,-0.00323826320204,-0.497693834155,0.867338456404,0.0,0.0,0.0,0.0,0.0,0.0,0.0,0.0,0.0,0.000944,0.00054,-0.000924,0.0,0.0,0.0,0.0,0.0,0.0,0.0,0.0,0.0,-0.074,0.02,-9.592,0.0,0.0,0.0,0.0,0.0,0.0,0.0,0.0,0.0
1581113223661550151,2,1581113223661427974,,0.865010137039,-0.00323503737567,-0.497693813633,0.867338532186,0.0,0.0,0.0,0.0,0.0,0.0,0.0,0.0,0.0,-0.000463,-0.001707,0.001659,0.0,0.0,0.0,0.0,0.0,0.0,0.0,0.0,0.0,-0.095,0.023,-9.637,0.0,0.0,0.0,0.0,0.0,0.0,0.0,0.0,0.0
1581113223687311249,3,1581113223687197923,,0.865014515615,-0.00323507034448,-0.497686244658,0.867342875351,0.0,0.0,0.0,0.0,0.0,0.0,0.0,0.0,0.0,0.00039,-0.000111,-0.001988,0.0,0.0,0.0,0.0,0.0,0.0,0.0,0.0,0.0,-0.094,0.039,-9.612,0.0,0.0,0.0,0.0,0.0,0.0,0.0,0.0,0.0
1581113223711097019,4,1581113223710956096,,0.865014515615,-0.00323507034448,-0.497686244658,0.867342875351,0.0,0.0,0.0,0.0,0.0,0.0,0.0,0.0,0.0,-0.000773,-0.000478,-0.000443,0.0,0.0,0.0,0.0,0.0,0.0,0.0,0.0,0.0,-0.099,0.039,-9.586,0.0,0.0,0.0,0.0,0.0,0.0,0.0,0.0,0.0
1581113223736958458,5,1581113223736808061,,0.86500137969,-0.00325017542399,-0.497693798083,0.867338446635,0.0,0.0,0.0,0.0,0.0,0.0,0.0,0.0,0.0,0.000178,0.000342,0.000571,0.0,0.0,0.0,0.0,0.0,0.0,0.0,0.0,0.0,-0.101,0.019,-9.583,0.0,0.0,0.0,0.0,0.0,0.0,0.0,0.0,0.0
1581113223761921886,6,1581113223761802911,,0.865001392239,-0.00325451862159,-0.497693769701,0.867338479647,0.0,0.0,0.0,0.0,0.0,0.0,0.0,0.0,0.0,-0.000509,0.000115,-0.001202,0.0,0.0,0.0,0.0,0.0,0.0,0.0,0.0,0.0,-0.114,0.016,-9.581,0.0,0.0,0.0,0.0,0.0,0.0,0.0,0.0,0.0
1581113223787014902,7,1581113223786899089,,0.865010149589,-0.00325458457845,-0.497678631713,0.86734716591,0.0,0.0,0.0,0.0,0.0,0.0,0.0,0.0,0.0,0.000141,0.00028,-0.001147,0.0,0.0,0.0,0.0,0.0,0.0,0.0,0.0,0.0,-0.078,0.031,-9.651,0.0,0.0,0.0,0.0,0.0,0.0,0.0,0.0,0.0
1581113223812146002,8,1581113223812005043,,0.865010149589,-0.00324698253828,-0.497686208586,0.867342865582,0.0,0.0,0.0,0.0,0.0,0.0,0.0,0.0,0.0,-0.000228,-0.000315,0.001303,0.0,0.0,0.0,0.0,0.0,0.0,0.0,0.0,0.0,-0.098,0.015,-9.606,0.0,0.0,0.0,0.0,0.0,0.0,0.0,0.0,0.0
1581113223837173480,9,1581113223837028980,,0.864997013465,-0.00324688371557,-0.497708915398,0.86732983589,0.0,0.0,0.0,0.0,0.0,0.0,0.0,0.0,0.0,0.001101,-0.000669,-0.000809,0.0,0.0,0.0,0.0,0.0,0.0,0.0,0.0,0.0,-0.063,0.013,-9.587,0.0,0.0,0.0,0.0,0.0,0.0,0.0,0.0,0.0
1581113223861977511,10,1581113223861797094,,0.86498825572,-0.00324681783253,-0.497724053084,0.867321149099,0.0,0.0,0.0,0.0,0.0,0.0,0.0,0.0,0.0,2e-05,7.9e-05,0.000954,0.0,0.0,0.0,0.0,0.0,0.0,0.0,0.0,0.0,-0.097,0.021,-9.6,0.0,0.0,0.0,0.0,0.0,0.0,0.0,0.0,0.0
1581113223886898658,11,1581113223886730909,,0.86498825572,-0.00324681783253,-0.497724053084,0.867321149099,0.0,0.0,0.0,0.0,0.0,0.0,0.0,0.0,0.0,-0.00017,0.000202,-0.000555,0.0,0.0,0.0,0.0,0.0,0.0,0.0,0.0,0.0,-0.1,0.018,-9.589,0.0,0.0,0.0,0.0,0.0,0.0,0.0,0.0,0.0
1581113223912602994,12,1581113223912447929,,0.865005758398,-0.00323500440662,-0.497701382571,0.867334188955,0.0,0.0,0.0,0.0,0.0,0.0,0.0,0.0,0.0,-0.001122,0.000398,-0.001444,0.0,0.0,0.0,0.0,0.0,0.0,0.0,0.0,0.0,-0.074,0.024,-9.589,0.0,0.0,0.0,0.0,0.0,0.0,0.0,0.0,0.0
1581113223937277884,13,1581113223937164068,,0.865010137039,-0.00324263940666,-0.497686236902,0.867342832608,0.0,0.0,0.0,0.0,0.0,0.0,0.0,0.0,0.0,-0.001178,-0.00036,-0.001597,0.0,0.0,0.0,0.0,0.0,0.0,0.0,0.0,0.0,-0.071,0.033,-9.617,0.0,0.0,0.0,0.0,0.0,0.0,0.0,0.0,0.0
1581113223962032654,14,1581113223961915016,,0.86502327257,-0.00322753421271,-0.497678683362,0.867347261126,0.0,0.0,0.0,0.0,0.0,0.0,0.0,0.0,0.0,-0.000166,-0.000438,0.001435,0.0,0.0,0.0,0.0,0.0,0.0,0.0,0.0,0.0,-0.083,0.013,-9.642,0.0,0.0,0.0,0.0,0.0,0.0,0.0,0.0,0.0
1581113223987238628,15,1581113223987112045,,0.865027650948,-0.00322756714312,-0.49767111431,0.867351604159,0.0,0.0,0.0,0.0,0.0,0.0,0.0,0.0,0.0,-0.000708,0.000361,-0.001349,0.0,0.0,0.0,0.0,0.0,0.0,0.0,0.0,0.0,-0.074,0.028,-9.569,0.0,0.0,0.0,0.0,0.0,0.0,0.0,0.0,0.0
1581113224011892365,16,1581113224011734962,,0.86502327257,-0.00322753421271,-0.497678683362,0.867347261126,0.0,0.0,0.0,0.0,0.0,0.0,0.0,0.0,0.0,-0.00032,-0.000771,-0.001097,0.0,0.0,0.0,0.0,0.0,0.0,0.0,0.0,0.0,-0.083,0.026,-9.605,0.0,0.0,0.0,0.0,0.0,0.0,0.0,0.0,0.0
1581113224037626356,17,1581113224037512063,,0.865010137039,-0.00323503737567,-0.497693813633,0.867338532186,0.0,0.0,0.0,0.0,0.0,0.0,0.0,0.0,0.0,-0.000556,-0.000662,-0.000869,0.0,0.0,0.0,0.0,0.0,0.0,0.0,0.0,0.0,-0.096,0.025,-9.611,0.0,0.0,0.0,0.0,0.0,0.0,0.0,0.0,0.0
1581113224062098471,18,1581113224061903953,,0.86498825572,-0.00324681783253,-0.497724053084,0.867321149099,0.0,0.0,0.0,0.0,0.0,0.0,0.0,0.0,0.0,0.000298,0.000601,-0.001006,0.0,0.0,0.0,0.0,0.0,0.0,0.0,0.0,0.0,-0.098,0.043,-9.588,0.0,0.0,0.0,0.0,0.0,0.0,0.0,0.0,0.0
1581113224087355174,19,1581113224087222099,,0.864997013465,-0.00323928186366,-0.497716492083,0.867325535232,0.0,0.0,0.0,0.0,0.0,0.0,0.0,0.0,0.0,5e-05,-0.000233,0.000526,0.0,0.0,0.0,0.0,0.0,0.0,0.0,0.0,0.0,-0.082,0.043,-9.589,0.0,0.0,0.0,0.0,0.0,0.0,0.0,0.0,0.0
1581113224111984825,20,1581113224111867904,,0.865001367075,-0.00323062810724,-0.497708979682,0.867329812656,0.0,0.0,0.0,0.0,0.0,0.0,0.0,0.0,0.0,-0.000195,-0.000896,-0.001124,0.0,0.0,0.0,0.0,0.0,0.0,0.0,0.0,0.0,-0.079,0.05,-9.596,0.0,0.0,0.0,0.0,0.0,0.0,0.0,0.0,0.0
1581113224136950438,21,1581113224136847019,,0.865001367075,-0.00323062810724,-0.497708979682,0.867329812656,0.0,0.0,0.0,0.0,0.0,0.0,0.0,0.0,0.0,-0.001051,0.00111,-0.001219,0.0,0.0,0.0,0.0,0.0,0.0,0.0,0.0,0.0,-0.072,0.039,-9.617,0.0,0.0,0.0,0.0,0.0,0.0,0.0,0.0,0.0
1581113224161788183,22,1581113224161684989,,0.865005733102,-0.0032111138531,-0.497716591853,0.867325521661,0.0,0.0,0.0,0.0,0.0,0.0,0.0,0.0,0.0,0.000871,0.000112,0.000158,0.0,0.0,0.0,0.0,0.0,0.0,0.0,0.0,0.0,-0.099,0.027,-9.614,0.0,0.0,0.0,0.0,0.0,0.0,0.0,0.0,0.0
1581113224186790761,23,1581113224186686992,,0.865010111744,-0.00321114687894,-0.497709022991,0.867329865025,0.0,0.0,0.0,0.0,0.0,0.0,0.0,0.0,0.0,0.000743,0.000508,0.001283,0.0,0.0,0.0,0.0,0.0,0.0,0.0,0.0,0.0,-0.063,0.04,-9.578,0.0,0.0,0.0,0.0,0.0,0.0,0.0,0.0,0.0
1581113224211786032,24,1581113224211682081,,0.865010111744,-0.00321114687894,-0.497709022991,0.867329865025,0.0,0.0,0.0,0.0,0.0,0.0,0.0,0.0,0.0,-0.000559,-0.001718,0.000375,0.0,0.0,0.0,0.0,0.0,0.0,0.0,0.0,0.0,-0.073,0.028,-9.613,0.0,0.0,0.0,0.0,0.0,0.0,0.0,0.0,0.0
1581113224237447799,25,1581113224237339019,,0.865001367075,-0.00322302616075,-0.497716556197,0.867325512006,0.0,0.0,0.0,0.0,0.0,0.0,0.0,0.0,0.0,-4e-06,0.000808,0.000489,0.0,0.0,0.0,0.0,0.0,0.0,0.0,0.0,0.0,-0.072,0.016,-9.603,0.0,0.0,0.0,0.0,0.0,0.0,0.0,0.0,0.0
1581113224262360712,26,1581113224262233972,,0.865001392239,-0.0032317129529,-0.497716499868,0.86732557787,0.0,0.0,0.0,0.0,0.0,0.0,0.0,0.0,0.0,0.00018,0.001523,-0.000425,0.0,0.0,0.0,0.0,0.0,0.0,0.0,0.0,0.0,-0.088,0.025,-9.59,0.0,0.0,0.0,0.0,0.0,0.0,0.0,0.0,0.0
1581113224287487256,27,1581113224287384986,,0.865001404722,-0.00324365809674,-0.497708894934,0.867329911465,0.0,0.0,0.0,0.0,0.0,0.0,0.0,0.0,0.0,0.000106,0.000121,-0.000522,0.0,0.0,0.0,0.0,0.0,0.0,0.0,0.0,0.0,-0.079,0.026,-9.61,0.0,0.0,0.0,0.0,0.0,0.0,0.0,0.0,0.0
1581113224312526034,28,1581113224312414884,,0.865010162072,-0.00324372377089,-0.497693757095,0.867338597992,0.0,0.0,0.0,0.0,0.0,0.0,0.0,0.0,0.0,0.000424,-0.000209,-0.000285,0.0,0.0,0.0,0.0,0.0,0.0,0.0,0.0,0.0,-0.082,0.035,-9.602,0.0,0.0,0.0,0.0,0.0,0.0,0.0,0.0,0.0
1581113224336844227,29,1581113224336739063,,0.864988268203,-0.00325116129415,-0.497724024731,0.867321182008,0.0,0.0,0.0,0.0,0.0,0.0,0.0,0.0,0.0,0.000162,-0.00202,-0.001049,0.0,0.0,0.0,0.0,0.0,0.0,0.0,0.0,0.0,-0.081,-0.002,-9.584,0.0,0.0,0.0,0.0,0.0,0.0,0.0,0.0,0.0
1581113224370621705,30,1581113224369957923,,0.864966385105,-0.00326294223548,-0.497754263264,0.867303797783,0.0,0.0,0.0,0.0,0.0,0.0,0.0,0.0,0.0,0.000293,0.001014,0.001848,0.0,0.0,0.0,0.0,0.0,0.0,0.0,0.0,0.0,-0.092,0.055,-9.613,0.0,0.0,0.0,0.0,0.0,0.0,0.0,0.0,0.0
1581113224389007791,31,1581113224388816118,,0.864979510195,-0.0032586972527,-0.497731585589,0.867316795781,0.0,0.0,0.0,0.0,0.0,0.0,0.0,0.0,0.0,-0.000868,0.000504,-0.000103,0.0,0.0,0.0,0.0,0.0,0.0,0.0,0.0,0.0,-0.105,0.033,-9.58,0.0,0.0,0.0,0.0,0.0,0.0,0.0,0.0,0.0
1581113224412199082,32,1581113224412041902,,0.86497073944,-0.00326949139326,-0.49773159817,0.867316677096,0.0,0.0,0.0,0.0,0.0,0.0,0.0,0.0,0.0,-0.000696,-0.001827,0.001217,0.0,0.0,0.0,0.0,0.0,0.0,0.0,0.0,0.0,-0.079,0.026,-9.62,0.0,0.0,0.0,0.0,0.0,0.0,0.0,0.0,0.0
1581113224437071853,33,1581113224436892032,,0.864988292971,-0.00327505159905,-0.497708814069,0.867329849038,0.0,0.0,0.0,0.0,0.0,0.0,0.0,0.0,0.0,0.000588,0.0003,0.00064,0.0,0.0,0.0,0.0,0.0,0.0,0.0,0.0,0.0,-0.094,0.035,-9.632,0.0,0.0,0.0,0.0,0.0,0.0,0.0,0.0,0.0
1581113224461845046,34,1581113224461740016,,0.864992671877,-0.00326748265135,-0.497708822166,0.86732989176,0.0,0.0,0.0,0.0,0.0,0.0,0.0,0.0,0.0,-1.7e-05,7.8e-05,0.000627,0.0,0.0,0.0,0.0,0.0,0.0,0.0,0.0,0.0,-0.085,0.03,-9.658,0.0,0.0,0.0,0.0,0.0,0.0,0.0,0.0,0.0
1581113224489491947,35,1581113224489346027,,0.864997050717,-0.00325231204984,-0.497716407108,0.867325633645,0.0,0.0,0.0,0.0,0.0,0.0,0.0,0.0,0.0,-0.000371,0.000531,0.000794,0.0,0.0,0.0,0.0,0.0,0.0,0.0,0.0,0.0,-0.076,0.044,-9.596,0.0,0.0,0.0,0.0,0.0,0.0,0.0,0.0,0.0
1581113224520049477,36,1581113224519586086,,0.864992659526,-0.00324793588305,-0.497724004296,0.867321257479,0.0,0.0,0.0,0.0,0.0,0.0,0.0,0.0,0.0,-0.000744,0.000771,0.001447,0.0,0.0,0.0,0.0,0.0,0.0,0.0,0.0,0.0,-0.11,0.036,-9.599,0.0,0.0,0.0,0.0,0.0,0.0,0.0,0.0,0.0
1581113224538432378,37,1581113224538271903,,0.864979522612,-0.00324783756665,-0.497746710543,0.867308226797,0.0,0.0,0.0,0.0,0.0,0.0,0.0,0.0,0.0,-0.000862,0.000606,0.00098,0.0,0.0,0.0,0.0,0.0,0.0,0.0,0.0,0.0,-0.087,0.019,-9.563,0.0,0.0,0.0,0.0,0.0,0.0,0.0,0.0,0.0
1581113224561944953,38,1581113224561769962,,0.864962005804,-0.00324770647464,-0.497776985008,0.867290851631,0.0,0.0,0.0,0.0,0.0,0.0,0.0,0.0,0.0,-0.000983,-0.000752,-0.000784,0.0,0.0,0.0,0.0,0.0,0.0,0.0,0.0,0.0,-0.083,0.029,-9.604,0.0,0.0,0.0,0.0,0.0,0.0,0.0,0.0,0.0
1581113224586877006,39,1581113224586730957,,0.864948867507,-0.00324760815304,-0.497799690459,0.867277819563,0.0,0.0,0.0,0.0,0.0,0.0,0.0,0.0,0.0,0.000455,0.000707,0.000111,0.0,0.0,0.0,0.0,0.0,0.0,0.0,0.0,0.0,-0.095,0.017,-9.603,0.0,0.0,0.0,0.0,0.0,0.0,0.0,0.0,0.0
1581113224612300532,40,1581113224612191915,,0.864935728616,-0.00324750982921,-0.497822395568,0.8672647869,0.0,0.0,0.0,0.0,0.0,0.0,0.0,0.0,0.0,0.000993,-5e-05,0.0017,0.0,0.0,0.0,0.0,0.0,0.0,0.0,0.0,0.0,-0.083,0.029,-9.593,0.0,0.0,0.0,0.0,0.0,0.0,0.0,0.0,0.0
1581113224637569332,41,1581113224637459993,,0.864926969027,-0.00325504539588,-0.497829955902,0.86726039992,0.0,0.0,0.0,0.0,0.0,0.0,0.0,0.0,0.0,-0.001049,-1.5e-05,-4.4e-05,0.0,0.0,0.0,0.0,0.0,0.0,0.0,0.0,0.0,-0.073,0.03,-9.605,0.0,0.0,0.0,0.0,0.0,0.0,0.0,0.0,0.0
1581113224662188627,42,1581113224662043094,,0.864931348855,-0.00324747705411,-0.497829963862,0.867260442547,0.0,0.0,0.0,0.0,0.0,0.0,0.0,0.0,0.0,0.000381,0.000202,0.001488,0.0,0.0,0.0,0.0,0.0,0.0,0.0,0.0,0.0,-0.089,0.034,-9.607,0.0,0.0,0.0,0.0,0.0,0.0,0.0,0.0,0.0
1581113224687349408,43,1581113224687220096,,0.864926969027,-0.00325504539588,-0.497829955902,0.86726039992,0.0,0.0,0.0,0.0,0.0,0.0,0.0,0.0,0.0,-0.000348,-0.000503,0.000791,0.0,0.0,0.0,0.0,0.0,0.0,0.0,0.0,0.0,-0.102,0.022,-9.607,0.0,0.0,0.0,0.0,0.0,0.0,0.0,0.0,0.0
1581113224712297964,44,1581113224712162017,,0.864922601484,-0.00326695812314,-0.497829919412,0.867260390045,0.0,0.0,0.0,0.0,0.0,0.0,0.0,0.0,0.0,0.000237,-0.001273,0.000444,0.0,0.0,0.0,0.0,0.0,0.0,0.0,0.0,0.0,-0.098,0.035,-9.617,0.0,0.0,0.0,0.0,0.0,0.0,0.0,0.0,0.0
1581113224737522535,45,1581113224737404108,,0.864931348855,-0.0032550782089,-0.497822387608,0.867264744273,0.0,0.0,0.0,0.0,0.0,0.0,0.0,0.0,0.0,0.000686,-0.000977,0.000313,0.0,0.0,0.0,0.0,0.0,0.0,0.0,0.0,0.0,-0.081,0.025,-9.596,0.0,0.0,0.0,0.0,0.0,0.0,0.0,0.0,0.0
1581113224762544128,46,1581113224762428045,,0.864926981377,-0.00326699090802,-0.497822351119,0.867264734397,0.0,0.0,0.0,0.0,0.0,0.0,0.0,0.0,0.0,-0.000199,-0.001051,0.002099,0.0,0.0,0.0,0.0,0.0,0.0,0.0,0.0,0.0,-0.077,0.033,-9.597,0.0,0.0,0.0,0.0,0.0,0.0,0.0,0.0,0.0
1581113224787352261,47,1581113224787225008,,0.864922613768,-0.00326370148606,-0.497837467271,0.867256120996,0.0,0.0,0.0,0.0,0.0,0.0,0.0,0.0,0.0,0.000109,0.000562,-0.000287,0.0,0.0,0.0,0.0,0.0,0.0,0.0,0.0,0.0,-0.075,0.016,-9.598,0.0,0.0,0.0,0.0,0.0,0.0,0.0,0.0,0.0
1581113224812228626,48,1581113224812020063,,0.864918233808,-0.00326366880464,-0.497845035489,0.867251776511,0.0,0.0,0.0,0.0,0.0,0.0,0.0,0.0,0.0,0.000263,0.000279,0.00024,0.0,0.0,0.0,0.0,0.0,0.0,0.0,0.0,0.0,-0.087,0.051,-9.625,0.0,0.0,0.0,0.0,0.0,0.0,0.0,0.0,0.0
1581113224836980003,49,1581113224836819887,,0.864931373489,-0.0032561658256,-0.497829907107,0.867260507966,0.0,0.0,0.0,0.0,0.0,0.0,0.0,0.0,0.0,-0.000503,-0.000713,-0.000697,0.0,0.0,0.0,0.0,0.0,0.0,0.0,0.0,0.0,-0.097,0.031,-9.628,0.0,0.0,0.0,0.0,0.0,0.0,0.0,0.0,0.0
1581113224862974375,50,1581113224862826108,,0.864940132947,-0.00325623111138,-0.49781477048,0.867269196605,0.0,0.0,0.0,0.0,0.0,0.0,0.0,0.0,0.0,0.001408,5.2e-05,0.001561,0.0,0.0,0.0,0.0,0.0,0.0,0.0,0.0,0.0,-0.088,0.048,-9.622,0.0,0.0,0.0,0.0,0.0,0.0,0.0,0.0,0.0
1581113224887537323,51,1581113224887399911,,0.864940120663,-0.00325188685785,-0.497814798877,0.867269163929,0.0,0.0,0.0,0.0,0.0,0.0,0.0,0.0,0.0,-0.000546,-0.000658,0.001165,0.0,0.0,0.0,0.0,0.0,0.0,0.0,0.0,0.0,-0.087,0.033,-9.578,0.0,0.0,0.0,0.0,0.0,0.0,0.0,0.0,0.0
1581113224912395444,52,1581113224912272930,,0.864957638788,-0.00324441645129,-0.49779210164,0.867282238916,0.0,0.0,0.0,0.0,0.0,0.0,0.0,0.0,0.0,-0.000425,0.000646,-0.001029,0.0,0.0,0.0,0.0,0.0,0.0,0.0,0.0,0.0,-0.1,0.022,-9.575,0.0,0.0,0.0,0.0,0.0,0.0,0.0,0.0,0.0
1581113224937236805,53,1581113224937082052,,0.864962042659,-0.00326073824452,-0.497776899813,0.867290949654,0.0,0.0,0.0,0.0,0.0,0.0,0.0,0.0,0.0,0.001617,-0.0006,0.000956,0.0,0.0,0.0,0.0,0.0,0.0,0.0,0.0,0.0,-0.095,0.06,-9.578,0.0,0.0,0.0,0.0,0.0,0.0,0.0,0.0,0.0
1581113224967550413,54,1581113224967432975,,0.86496203044,-0.00325639432147,-0.497776928249,0.867290917046,0.0,0.0,0.0,0.0,0.0,0.0,0.0,0.0,0.0,-0.00044,-0.000862,-3.1e-05,0.0,0.0,0.0,0.0,0.0,0.0,0.0,0.0,0.0,-0.078,0.033,-9.627,0.0,0.0,0.0,0.0,0.0,0.0,0.0,0.0,0.0
1581113224987162950,55,1581113224987021923,,0.864957651073,-0.00324876050675,-0.497792073308,0.867282271553,0.0,0.0,0.0,0.0,0.0,0.0,0.0,0.0,0.0,0.000203,-0.000236,-0.000407,0.0,0.0,0.0,0.0,0.0,0.0,0.0,0.0,0.0,-0.108,0.025,-9.596,0.0,0.0,0.0,0.0,0.0,0.0,0.0,0.0,0.0
1581113225012476538,56,1581113225012371063,,0.864940120663,-0.00324428576917,-0.497822375198,0.867264862166,0.0,0.0,0.0,0.0,0.0,0.0,0.0,0.0,0.0,-0.000509,6.7e-05,0.001024,0.0,0.0,0.0,0.0,0.0,0.0,0.0,0.0,0.0,-0.102,0.048,-9.615,0.0,0.0,0.0,0.0,0.0,0.0,0.0,0.0,0.0
1581113225037444149,57,1581113225037329912,,0.864948879857,-0.00325195227472,-0.497799662099,0.867277852304,0.0,0.0,0.0,0.0,0.0,0.0,0.0,0.0,0.0,0.00052,-0.000495,0.000676,0.0,0.0,0.0,0.0,0.0,0.0,0.0,0.0,0.0,-0.089,0.034,-9.605,0.0,0.0,0.0,0.0,0.0,0.0,0.0,0.0,0.0
1581113225062098734,58,1581113225061989068,,0.864944500293,-0.00326712204505,-0.497792077565,0.867282111147,0.0,0.0,0.0,0.0,0.0,0.0,0.0,0.0,0.0,0.000112,-0.001015,-0.001441,0.0,0.0,0.0,0.0,0.0,0.0,0.0,0.0,0.0,-0.095,0.036,-9.594,0.0,0.0,0.0,0.0,0.0,0.0,0.0,0.0,0.0
1581113225087062187,59,1581113225086941003,,0.864948892142,-0.00326389756936,-0.497792057164,0.867282186516,0.0,0.0,0.0,0.0,0.0,0.0,0.0,0.0,0.0,0.000174,-6e-05,-0.000148,0.0,0.0,0.0,0.0,0.0,0.0,0.0,0.0,0.0,-0.114,0.015,-9.599,0.0,0.0,0.0,0.0,0.0,0.0,0.0,0.0,0.0
1581113225112005544,60,1581113225111892938,,0.864935753251,-0.00327140066437,-0.497807185888,0.867273455656,0.0,0.0,0.0,0.0,0.0,0.0,0.0,0.0,0.0,0.000944,-1.5e-05,0.000945,0.0,0.0,0.0,0.0,0.0,0.0,0.0,0.0,0.0,-0.094,0.017,-9.584,0.0,0.0,0.0,0.0,0.0,0.0,0.0,0.0,0.0
1581113225137359316,61,1581113225137248992,,0.864935753251,-0.00327140066437,-0.497807185888,0.867273455656,0.0,0.0,0.0,0.0,0.0,0.0,0.0,0.0,0.0,-0.001124,0.00015,0.000543,0.0,0.0,0.0,0.0,0.0,0.0,0.0,0.0,0.0,-0.083,0.029,-9.575,0.0,0.0,0.0,0.0,0.0,0.0,0.0,0.0,0.0
1581113225162113477,62,1581113225161989927,,0.864940145166,-0.00326817639642,-0.497807165517,0.867273530921,0.0,0.0,0.0,0.0,0.0,0.0,0.0,0.0,0.0,3.6e-05,0.000888,0.000435,0.0,0.0,0.0,0.0,0.0,0.0,0.0,0.0,0.0,-0.073,0.033,-9.604,0.0,0.0,0.0,0.0,0.0,0.0,0.0,0.0,0.0
1581113225187592515,63,1581113225187489986,,0.864940132947,-0.00324863008882,-0.497822346868,0.867264894804,0.0,0.0,0.0,0.0,0.0,0.0,0.0,0.0,0.0,5e-06,0.001603,0.001658,0.0,0.0,0.0,0.0,0.0,0.0,0.0,0.0,0.0,-0.095,0.015,-9.615,0.0,0.0,0.0,0.0,0.0,0.0,0.0,0.0,0.0
1581113225212021280,64,1581113225211914062,,0.864948892142,-0.00325629639616,-0.497799633701,0.867277884979,0.0,0.0,0.0,0.0,0.0,0.0,0.0,0.0,0.0,0.000107,0.000554,0.001926,0.0,0.0,0.0,0.0,0.0,0.0,0.0,0.0,0.0,-0.074,0.03,-9.6,0.0,0.0,0.0,0.0,0.0,0.0,0.0,0.0,0.0
1581113225236946205,65,1581113225236793994,,0.86495327164,-0.00324872790264,-0.497799641755,0.867277927465,0.0,0.0,0.0,0.0,0.0,0.0,0.0,0.0,0.0,0.000886,-0.000445,0.000326,0.0,0.0,0.0,0.0,0.0,0.0,0.0,0.0,0.0,-0.071,0.041,-9.566,0.0,0.0,0.0,0.0,0.0,0.0,0.0,0.0,0.0
1581113225262520304,66,1581113225262407064,,0.864966397456,-0.00324448179087,-0.497776964634,0.867290926895,0.0,0.0,0.0,0.0,0.0,0.0,0.0,0.0,0.0,-0.001174,-0.000128,-0.000997,0.0,0.0,0.0,0.0,0.0,0.0,0.0,0.0,0.0,-0.103,0.043,-9.576,0.0,0.0,0.0,0.0,0.0,0.0,0.0,0.0,0.0
1581113225287425941,67,1581113225287293910,,0.864935753251,-0.00324859748372,-0.497829915162,0.867260550451,0.0,0.0,0.0,0.0,0.0,0.0,0.0,0.0,0.0,0.001192,-0.001348,-0.001213,0.0,0.0,0.0,0.0,0.0,0.0,0.0,0.0,0.0,-0.083,0.028,-9.617,0.0,0.0,0.0,0.0,0.0,0.0,0.0,0.0,0.0
1581113225320888133,68,1581113225320101976,,0.864935740967,-0.00325945527537,-0.497814790851,0.867269121339,0.0,0.0,0.0,0.0,0.0,0.0,0.0,0.0,0.0,-0.001033,-0.000603,0.001217,0.0,0.0,0.0,0.0,0.0,0.0,0.0,0.0,0.0,-0.101,0.037,-9.61,0.0,0.0,0.0,0.0,0.0,0.0,0.0,0.0,0.0
1581113225339361929,69,1581113225339093923,,0.864922601484,-0.00326695812314,-0.497829919412,0.867260390045,0.0,0.0,0.0,0.0,0.0,0.0,0.0,0.0,0.0,-0.000387,-0.000226,-0.000618,0.0,0.0,0.0,0.0,0.0,0.0,0.0,0.0,0.0,-0.084,0.03,-9.628,0.0,0.0,0.0,0.0,0.0,0.0,0.0,0.0,0.0
1581113225362222716,70,1581113225362061977,,0.864913853783,-0.00327883809276,-0.49783745097,0.867256035695,0.0,0.0,0.0,0.0,0.0,0.0,0.0,0.0,0.0,9e-05,6.6e-05,-0.000605,0.0,0.0,0.0,0.0,0.0,0.0,0.0,0.0,0.0,-0.078,0.014,-9.621,0.0,0.0,0.0,0.0,0.0,0.0,0.0,0.0,0.0
1581113225387438466,71,1581113225387331008,,0.864905093535,-0.00328637360058,-0.497845010981,0.867251648461,0.0,0.0,0.0,0.0,0.0,0.0,0.0,0.0,0.0,8.5e-05,-0.000711,0.000578,0.0,0.0,0.0,0.0,0.0,0.0,0.0,0.0,0.0,-0.102,0.039,-9.607,0.0,0.0,0.0,0.0,0.0,0.0,0.0,0.0,0.0
1581113225412434967,72,1581113225412321090,,0.864891940384,-0.00328193049806,-0.497867744064,0.867238581783,0.0,0.0,0.0,0.0,0.0,0.0,0.0,0.0,0.0,-2.4e-05,-0.000537,0.000809,0.0,0.0,0.0,0.0,0.0,0.0,0.0,0.0,0.0,-0.103,0.024,-9.593,0.0,0.0,0.0,0.0,0.0,0.0,0.0,0.0,0.0
1581113225437608842,73,1581113225437478065,,0.86487443059,-0.00329374486173,-0.497890411241,0.867225537353,0.0,0.0,0.0,0.0,0.0,0.0,0.0,0.0,0.0,0.000904,-0.001001,-0.001158,0.0,0.0,0.0,0.0,0.0,0.0,0.0,0.0,0.0,-0.101,0.021,-9.602,0.0,0.0,0.0,0.0,0.0,0.0,0.0,0.0,0.0
1581113225462483589,74,1581113225462352037,,0.86487443059,-0.0033013457713,-0.497882834966,0.867229839353,0.0,0.0,0.0,0.0,0.0,0.0,0.0,0.0,0.0,-0.000585,-0.00087,0.001287,0.0,0.0,0.0,0.0,0.0,0.0,0.0,0.0,0.0,-0.068,0.037,-9.601,0.0,0.0,0.0,0.0,0.0,0.0,0.0,0.0,0.0
1581113225487447690,75,1581113225487315893,,0.864878811209,-0.0032937776963,-0.497882843251,0.867229882234,0.0,0.0,0.0,0.0,0.0,0.0,0.0,0.0,0.0,0.000553,0.00094,0.000922,0.0,0.0,0.0,0.0,0.0,0.0,0.0,0.0,0.0,-0.076,0.048,-9.571,0.0,0.0,0.0,0.0,0.0,0.0,0.0,0.0,0.0
1581113225511978070,76,1581113225511830091,,0.864874418307,-0.00328939994811,-0.497890439965,0.867225504486,0.0,0.0,0.0,0.0,0.0,0.0,0.0,0.0,0.0,-0.000315,0.000949,0.001261,0.0,0.0,0.0,0.0,0.0,0.0,0.0,0.0,0.0,-0.098,0.009,-9.574,0.0,0.0,0.0,0.0,0.0,0.0,0.0,0.0,0.0
1581113225537301270,77,1581113225537193059,,0.864865669156,-0.00330128002607,-0.497897970906,0.867221149526,0.0,0.0,0.0,0.0,0.0,0.0,0.0,0.0,0.0,-0.000206,-0.001392,0.000813,0.0,0.0,0.0,0.0,0.0,0.0,0.0,0.0,0.0,-0.099,0.02,-9.587,0.0,0.0,0.0,0.0,0.0,0.0,0.0,0.0,0.0
1581113225562098018,78,1581113225561989068,,0.864861288341,-0.00330124715308,-0.49790553882,0.867216804513,0.0,0.0,0.0,0.0,0.0,0.0,0.0,0.0,0.0,0.001316,-0.000748,-0.001256,0.0,0.0,0.0,0.0,0.0,0.0,0.0,0.0,0.0,-0.083,0.037,-9.595,0.0,0.0,0.0,0.0,0.0,0.0,0.0,0.0,0.0
1581113225587802499,79,1581113225587666988,,0.864852526512,-0.00330118140635,-0.497920674532,0.86720811429,0.0,0.0,0.0,0.0,0.0,0.0,0.0,0.0,0.0,-0.000978,-0.000201,-0.001797,0.0,0.0,0.0,0.0,0.0,0.0,0.0,0.0,0.0,-0.095,0.029,-9.606,0.0,0.0,0.0,0.0,0.0,0.0,0.0,0.0,0.0
1581113225612105346,80,1581113225611979007,,0.864865644524,-0.00328498910017,-0.497905604516,0.867216781592,0.0,0.0,0.0,0.0,0.0,0.0,0.0,0.0,0.0,-0.000596,-0.001861,0.001539,0.0,0.0,0.0,0.0,0.0,0.0,0.0,0.0,0.0,-0.091,0.05,-9.607,0.0,0.0,0.0,0.0,0.0,0.0,0.0,0.0,0.0
1581113225637848789,81,1581113225637742996,,0.864861263708,-0.00328495613276,-0.497913172391,0.867212436513,0.0,0.0,0.0,0.0,0.0,0.0,0.0,0.0,0.0,-0.000478,0.000924,3e-05,0.0,0.0,0.0,0.0,0.0,0.0,0.0,0.0,0.0,-0.094,0.035,-9.611,0.0,0.0,0.0,0.0,0.0,0.0,0.0,0.0,0.0
1581113225662777044,82,1581113225662648916,,0.864870049906,-0.00329371202691,-0.497897979192,0.867221192407,0.0,0.0,0.0,0.0,0.0,0.0,0.0,0.0,0.0,5.2e-05,0.000561,0.00116,0.0,0.0,0.0,0.0,0.0,0.0,0.0,0.0,0.0,-0.076,0.037,-9.6,0.0,0.0,0.0,0.0,0.0,0.0,0.0,0.0,0.0
1581113225688476168,83,1581113225688371896,,0.864878811209,-0.0032937776963,-0.497882843251,0.867229882234,0.0,0.0,0.0,0.0,0.0,0.0,0.0,0.0,0.0,0.001502,-0.001145,0.002811,0.0,0.0,0.0,0.0,0.0,0.0,0.0,0.0,0.0,-0.084,0.02,-9.587,0.0,0.0,0.0,0.0,0.0,0.0,0.0,0.0,0.0
1581113225712564483,84,1581113225712454080,,0.864874442808,-0.0032980897751,-0.497890382478,0.867225570155,0.0,0.0,0.0,0.0,0.0,0.0,0.0,0.0,0.0,0.000361,-0.000615,0.000425,0.0,0.0,0.0,0.0,0.0,0.0,0.0,0.0,0.0,-0.08,0.043,-9.573,0.0,0.0,0.0,0.0,0.0,0.0,0.0,0.0,0.0
1581113225738113685,85,1581113225738007068,,0.864865669156,-0.00329367919183,-0.497905547106,0.867216847394,0.0,0.0,0.0,0.0,0.0,0.0,0.0,0.0,0.0,-0.000163,-0.000657,0.001151,0.0,0.0,0.0,0.0,0.0,0.0,0.0,0.0,0.0,-0.089,0.034,-9.595,0.0,0.0,0.0,0.0,0.0,0.0,0.0,0.0,0.0
1581113225762996337,86,1581113225762842893,,0.864870062124,-0.00329805700632,-0.49789795043,0.867221225209,0.0,0.0,0.0,0.0,0.0,0.0,0.0,0.0,0.0,-0.001156,-0.000528,0.001301,0.0,0.0,0.0,0.0,0.0,0.0,0.0,0.0,0.0,-0.095,0.025,-9.6,0.0,0.0,0.0,0.0,0.0,0.0,0.0,0.0,0.0
1581113225787931225,87,1581113225787816047,,0.86487445496,-0.00331003546555,-0.497882777271,0.867229904965,0.0,0.0,0.0,0.0,0.0,0.0,0.0,0.0,0.0,-0.000258,0.000454,-0.000195,0.0,0.0,0.0,0.0,0.0,0.0,0.0,0.0,0.0,-0.09,0.042,-9.614,0.0,0.0,0.0,0.0,0.0,0.0,0.0,0.0,0.0
1581113225812400987,88,1581113225812278032,,0.86487445496,-0.00331003546555,-0.497882777271,0.867229904965,0.0,0.0,0.0,0.0,0.0,0.0,0.0,0.0,0.0,0.001123,-0.001923,0.000552,0.0,0.0,0.0,0.0,0.0,0.0,0.0,0.0,0.0,-0.102,0.042,-9.588,0.0,0.0,0.0,0.0,0.0,0.0,0.0,0.0,0.0
1581113225838666411,89,1581113225838536024,,0.864874467046,-0.0033143803123,-0.497882748366,0.867229937672,0.0,0.0,0.0,0.0,0.0,0.0,0.0,0.0,0.0,-0.000383,0.000728,0.0014,0.0,0.0,0.0,0.0,0.0,0.0,0.0,0.0,0.0,-0.079,0.034,-9.596,0.0,0.0,0.0,0.0,0.0,0.0,0.0,0.0,0.0
1581113225863010413,90,1581113225862843036,,0.864870086362,-0.00331434763795,-0.497890316356,0.867225592793,0.0,0.0,0.0,0.0,0.0,0.0,0.0,0.0,0.0,0.000157,-0.000527,0.001443,0.0,0.0,0.0,0.0,0.0,0.0,0.0,0.0,0.0,-0.084,0.047,-9.607,0.0,0.0,0.0,0.0,0.0,0.0,0.0,0.0,0.0
1581113225888894526,91,1581113225888731956,,0.86486131271,-0.0033099372436,-0.497905481126,0.867216870127,0.0,0.0,0.0,0.0,0.0,0.0,0.0,0.0,0.0,0.000698,-0.000731,-0.000797,0.0,0.0,0.0,0.0,0.0,0.0,0.0,0.0,0.0,-0.095,0.021,-9.581,0.0,0.0,0.0,0.0,0.0,0.0,0.0,0.0,0.0
1581113225913565222,92,1581113225913424015,,0.864870086362,-0.00331434763795,-0.497890316356,0.867225592793,0.0,0.0,0.0,0.0,0.0,0.0,0.0,0.0,0.0,-7.9e-05,1.3e-05,-0.001186,0.0,0.0,0.0,0.0,0.0,0.0,0.0,0.0,0.0,-0.083,0.027,-9.581,0.0,0.0,0.0,0.0,0.0,0.0,0.0,0.0,0.0
1581113225939114904,93,1581113225938927888,,0.864861324796,-0.00332188296203,-0.497897875786,0.867221205014,0.0,0.0,0.0,0.0,0.0,0.0,0.0,0.0,0.0,-0.000287,-0.000881,-0.000255,0.0,0.0,0.0,0.0,0.0,0.0,0.0,0.0,0.0,-0.08,0.017,-9.564,0.0,0.0,0.0,0.0,0.0,0.0,0.0,0.0,0.0
1581113225963717182,94,1581113225963502883,,0.864865705612,-0.00332191567455,-0.497890307835,0.867225549959,0.0,0.0,0.0,0.0,0.0,0.0,0.0,0.0,0.0,0.000533,7.3e-05,-0.00016,0.0,0.0,0.0,0.0,0.0,0.0,0.0,0.0,0.0,-0.105,0.025,-9.603,0.0,0.0,0.0,0.0,0.0,0.0,0.0,0.0,0.0
1581113225988703587,95,1581113225988574028,,0.86486131271,-0.00332513879827,-0.497890328312,0.867225474277,0.0,0.0,0.0,0.0,0.0,0.0,0.0,0.0,0.0,-7e-06,-0.000188,-0.001552,0.0,0.0,0.0,0.0,0.0,0.0,0.0,0.0,0.0,-0.069,0.03,-9.607,0.0,0.0,0.0,0.0,0.0,0.0,0.0,0.0,0.0
1581113226013394739,96,1581113226013262033,,0.864861324796,-0.00331428228847,-0.497905452222,0.867216902835,0.0,0.0,0.0,0.0,0.0,0.0,0.0,0.0,0.0,-0.000163,0.001714,0.000757,0.0,0.0,0.0,0.0,0.0,0.0,0.0,0.0,0.0,-0.08,0.038,-9.622,0.0,0.0,0.0,0.0,0.0,0.0,0.0,0.0,0.0
1581113226038339001,97,1581113226038146972,,0.86486131271,-0.0033099372436,-0.497905481126,0.867216870127,0.0,0.0,0.0,0.0,0.0,0.0,0.0,0.0,0.0,0.000746,-9e-06,8.7e-05,0.0,0.0,0.0,0.0,0.0,0.0,0.0,0.0,0.0,-0.092,0.033,-9.583,0.0,0.0,0.0,0.0,0.0,0.0,0.0,0.0,0.0
1581113226063963961,98,1581113226063746929,,0.864861324796,-0.00332188296203,-0.497897875786,0.867221205014,0.0,0.0,0.0,0.0,0.0,0.0,0.0,0.0,0.0,0.001022,-0.000229,0.000702,0.0,0.0,0.0,0.0,0.0,0.0,0.0,0.0,0.0,-0.104,0.033,-9.6,0.0,0.0,0.0,0.0,0.0,0.0,0.0,0.0,0.0
1581113226088733150,99,1581113226088604927,,0.864856931828,-0.00332510598178,-0.497897896263,0.867221129331,0.0,0.0,0.0,0.0,0.0,0.0,0.0,0.0,0.0,0.000342,-0.000538,0.001936,0.0,0.0,0.0,0.0,0.0,0.0,0.0,0.0,0.0,-0.078,0.034,-9.6,0.0,0.0,0.0,0.0,0.0,0.0,0.0,0.0,0.0
1581113226113462784,100,1581113226113329887,,0.864870086362,-0.00332954921103,-0.497875163259,0.867234196753,0.0,0.0,0.0,0.0,0.0,0.0,0.0,0.0,0.0,0.000186,0.000206,0.001489,0.0,0.0,0.0,0.0,0.0,0.0,0.0,0.0,0.0,-0.088,0.021,-9.573,0.0,0.0,0.0,0.0,0.0,0.0,0.0,0.0,0.0
1581113226138389123,101,1581113226138256072,,0.864874467046,-0.00332958196071,-0.497867595194,0.8672385415,0.0,0.0,0.0,0.0,0.0,0.0,0.0,0.0,0.0,-6.6e-05,0.000189,0.000954,0.0,0.0,0.0,0.0,0.0,0.0,0.0,0.0,0.0,-0.099,0.033,-9.598,0.0,0.0,0.0,0.0,0.0,0.0,0.0,0.0,0.0
1581113226163344794,102,1581113226163151979,,0.864874479066,-0.00333392667497,-0.497867566119,0.867238574217,0.0,0.0,0.0,0.0,0.0,0.0,0.0,0.0,0.0,-0.001466,-0.000311,0.000678,0.0,0.0,0.0,0.0,0.0,0.0,0.0,0.0,0.0,-0.069,0.028,-9.592,0.0,0.0,0.0,0.0,0.0,0.0,0.0,0.0,0.0
1581113226189511343,103,1581113226189364910,,0.864891989125,-0.0033221119444,-0.497844899329,0.867251618246,0.0,0.0,0.0,0.0,0.0,0.0,0.0,0.0,0.0,-0.000125,8.8e-05,-0.000197,0.0,0.0,0.0,0.0,0.0,0.0,0.0,0.0,0.0,-0.094,0.032,-9.604,0.0,0.0,0.0,0.0,0.0,0.0,0.0,0.0,0.0
1581113226213737683,104,1581113226213563919,,0.864891989125,-0.00330691014534,-0.497860052651,0.867243014683,0.0,0.0,0.0,0.0,0.0,0.0,0.0,0.0,0.0,-0.001066,0.001144,0.001974,0.0,0.0,0.0,0.0,0.0,0.0,0.0,0.0,0.0,-0.106,0.038,-9.618,0.0,0.0,0.0,0.0,0.0,0.0,0.0,0.0,0.0
1581113226238789853,105,1581113226238656997,,0.864896357393,-0.00331019916378,-0.497844936754,0.867251628374,0.0,0.0,0.0,0.0,0.0,0.0,0.0,0.0,0.0,-0.000373,-0.000429,0.001978,0.0,0.0,0.0,0.0,0.0,0.0,0.0,0.0,0.0,-0.072,0.03,-9.602,0.0,0.0,0.0,0.0,0.0,0.0,0.0,0.0,0.0
1581113226263424021,106,1581113226263283014,,0.864887596618,-0.00331013368524,-0.497860073074,0.867242939209,0.0,0.0,0.0,0.0,0.0,0.0,0.0,0.0,0.0,-0.000599,0.00027,-0.000653,0.0,0.0,0.0,0.0,0.0,0.0,0.0,0.0,0.0,-0.067,0.028,-9.614,0.0,0.0,0.0,0.0,0.0,0.0,0.0,0.0,0.0
1581113226288357265,107,1581113226288224935,,0.864883216131,-0.00330250009294,-0.49787521766,0.867234292584,0.0,0.0,0.0,0.0,0.0,0.0,0.0,0.0,0.0,0.000132,0.000733,0.000661,0.0,0.0,0.0,0.0,0.0,0.0,0.0,0.0,0.0,-0.072,0.024,-9.609,0.0,0.0,0.0,0.0,0.0,0.0,0.0,0.0,0.0
1581113226313643235,108,1581113226313502073,,0.864878847665,-0.00329921156397,-0.497890333286,0.867225678262,0.0,0.0,0.0,0.0,0.0,0.0,0.0,0.0,0.0,0.000326,-0.00085,-0.001252,0.0,0.0,0.0,0.0,0.0,0.0,0.0,0.0,0.0,-0.088,0.017,-9.578,0.0,0.0,0.0,0.0,0.0,0.0,0.0,0.0,0.0
1581113226338737535,109,1581113226338603019,,0.864878847665,-0.00329921156397,-0.497890333286,0.867225678262,0.0,0.0,0.0,0.0,0.0,0.0,0.0,0.0,0.0,-0.000588,0.000916,0.001551,0.0,0.0,0.0,0.0,0.0,0.0,0.0,0.0,0.0,-0.082,0.022,-9.608,0.0,0.0,0.0,0.0,0.0,0.0,0.0,0.0,0.0
1581113226363761142,110,1581113226363584041,,0.864883228217,-0.0032992441625,-0.497882765295,0.867230023141,0.0,0.0,0.0,0.0,0.0,0.0,0.0,0.0,0.0,0.001147,-1.1e-05,0.001572,0.0,0.0,0.0,0.0,0.0,0.0,0.0,0.0,0.0,-0.088,0.04,-9.606,0.0,0.0,0.0,0.0,0.0,0.0,0.0,0.0,0.0
1581113226388501639,111,1581113226388340950,,0.864887608704,-0.00329167608722,-0.497882773703,0.867230065777,0.0,0.0,0.0,0.0,0.0,0.0,0.0,0.0,0.0,0.001378,0.000125,0.000341,0.0,0.0,0.0,0.0,0.0,0.0,0.0,0.0,0.0,-0.093,0.028,-9.599,0.0,0.0,0.0,0.0,0.0,0.0,0.0,0.0,0.0
1581113226413416978,112,1581113226413275003,,0.864878847665,-0.00329161096575,-0.497897909647,0.867221375951,0.0,0.0,0.0,0.0,0.0,0.0,0.0,0.0,0.0,-0.000148,-7.9e-05,-0.000956,0.0,0.0,0.0,0.0,0.0,0.0,0.0,0.0,0.0,-0.08,0.051,-9.603,0.0,0.0,0.0,0.0,0.0,0.0,0.0,0.0,0.0
1581113226438421131,113,1581113226438288927,,0.864878847665,-0.00328401044285,-0.497905485933,0.867217073508,0.0,0.0,0.0,0.0,0.0,0.0,0.0,0.0,0.0,-9e-05,0.000171,0.001325,0.0,0.0,0.0,0.0,0.0,0.0,0.0,0.0,0.0,-0.081,0.047,-9.596,0.0,0.0,0.0,0.0,0.0,0.0,0.0,0.0,0.0
1581113226463635421,114,1581113226463498115,,0.864870074276,-0.00327960021845,-0.497920650289,0.867208350729,0.0,0.0,0.0,0.0,0.0,0.0,0.0,0.0,0.0,-0.000635,0.000796,-0.000193,0.0,0.0,0.0,0.0,0.0,0.0,0.0,0.0,0.0,-0.104,0.041,-9.585,0.0,0.0,0.0,0.0,0.0,0.0,0.0,0.0,0.0
1581113226489847030,115,1581113226489712953,,0.864856907459,-0.00327081169623,-0.497943410742,0.867195249586,0.0,0.0,0.0,0.0,0.0,0.0,0.0,0.0,0.0,-0.001149,-0.001494,-0.001055,0.0,0.0,0.0,0.0,0.0,0.0,0.0,0.0,0.0,-0.087,0.031,-9.61,0.0,0.0,0.0,0.0,0.0,0.0,0.0,0.0,0.0
1581113226513566959,116,1581113226513439893,,0.864852526512,-0.00327077897341,-0.497950978429,0.867190904177,0.0,0.0,0.0,0.0,0.0,0.0,0.0,0.0,0.0,-0.00068,0.000171,-0.000562,0.0,0.0,0.0,0.0,0.0,0.0,0.0,0.0,0.0,-0.083,0.017,-9.611,0.0,0.0,0.0,0.0,0.0,0.0,0.0,0.0,0.0
1581113226538402455,117,1581113226538269996,,0.864848133215,-0.00326640074213,-0.497958574602,0.867186525946,0.0,0.0,0.0,0.0,0.0,0.0,0.0,0.0,0.0,-0.000922,-0.000255,0.001311,0.0,0.0,0.0,0.0,0.0,0.0,0.0,0.0,0.0,-0.101,0.034,-9.578,0.0,0.0,0.0,0.0,0.0,0.0,0.0,0.0,0.0
1581113226563361265,118,1581113226563225984,,0.86483498978,-0.00327390278397,-0.497973701677,0.867177792077,0.0,0.0,0.0,0.0,0.0,0.0,0.0,0.0,0.0,-0.000652,-0.001974,0.000593,0.0,0.0,0.0,0.0,0.0,0.0,0.0,0.0,0.0,-0.066,0.036,-9.578,0.0,0.0,0.0,0.0,0.0,0.0,0.0,0.0,0.0
1581113226589738224,119,1581113226589564085,,0.864839383274,-0.00327068080346,-0.497973681263,0.867177867554,0.0,0.0,0.0,0.0,0.0,0.0,0.0,0.0,0.0,0.001329,-0.000205,-0.001408,0.0,0.0,0.0,0.0,0.0,0.0,0.0,0.0,0.0,-0.077,0.038,-9.604,0.0,0.0,0.0,0.0,0.0,0.0,0.0,0.0,0.0
1581113226613701903,120,1581113226613574981,,0.864852526512,-0.00327077897341,-0.497950978429,0.867190904177,0.0,0.0,0.0,0.0,0.0,0.0,0.0,0.0,0.0,0.000522,-6e-06,-0.001897,0.0,0.0,0.0,0.0,0.0,0.0,0.0,0.0,0.0,-0.105,0.028,-9.575,0.0,0.0,0.0,0.0,0.0,0.0,0.0,0.0,0.0
1581113226638707758,121,1581113226638577938,,0.864856895176,-0.00325886579643,-0.497951015024,0.867190914076,0.0,0.0,0.0,0.0,0.0,0.0,0.0,0.0,0.0,0.000806,-0.000558,0.001205,0.0,0.0,0.0,0.0,0.0,0.0,0.0,0.0,0.0,-0.099,0.032,-9.618,0.0,0.0,0.0,0.0,0.0,0.0,0.0,0.0,0.0
1581113226663356254,122,1581113226663220882,,0.864865681374,-0.00326762191813,-0.497935822657,0.867199670197,0.0,0.0,0.0,0.0,0.0,0.0,0.0,0.0,0.0,0.000186,-0.000853,0.002494,0.0,0.0,0.0,0.0,0.0,0.0,0.0,0.0,0.0,-0.08,0.033,-9.624,0.0,0.0,0.0,0.0,0.0,0.0,0.0,0.0,0.0
1581113226688347239,123,1581113226688216924,,0.864865681374,-0.00326762191813,-0.497935822657,0.867199670197,0.0,0.0,0.0,0.0,0.0,0.0,0.0,0.0,0.0,-8.2e-05,0.00098,-0.000352,0.0,0.0,0.0,0.0,0.0,0.0,0.0,0.0,0.0,-0.073,0.037,-9.568,0.0,0.0,0.0,0.0,0.0,0.0,0.0,0.0,0.0
1581113226713723087,124,1581113226713593006,,0.864870049906,-0.0032557087974,-0.497935859251,0.867199680096,0.0,0.0,0.0,0.0,0.0,0.0,0.0,0.0,0.0,-0.001501,-2.2e-05,0.001474,0.0,0.0,0.0,0.0,0.0,0.0,0.0,0.0,0.0,-0.068,0.017,-9.595,0.0,0.0,0.0,0.0,0.0,0.0,0.0,0.0,0.0
1581113226738853737,125,1581113226738708019,,0.864883216131,-0.00326449695957,-0.497913098946,0.867212780889,0.0,0.0,0.0,0.0,0.0,0.0,0.0,0.0,0.0,0.000551,-0.000379,0.001085,0.0,0.0,0.0,0.0,0.0,0.0,0.0,0.0,0.0,-0.089,0.014,-9.595,0.0,0.0,0.0,0.0,0.0,0.0,0.0,0.0,0.0
1581113226763977717,126,1581113226763851881,,0.864883216131,-0.00325689655889,-0.497920674977,0.867208478153,0.0,0.0,0.0,0.0,0.0,0.0,0.0,0.0,0.0,-0.00043,0.00024,0.002408,0.0,0.0,0.0,0.0,0.0,0.0,0.0,0.0,0.0,-0.048,0.032,-9.61,0.0,0.0,0.0,0.0,0.0,0.0,0.0,0.0,0.0
1581113226788443858,127,1581113226788311958,,0.864870074276,-0.00325679912945,-0.497943378272,0.867195442323,0.0,0.0,0.0,0.0,0.0,0.0,0.0,0.0,0.0,-0.000388,-0.000768,0.000391,0.0,0.0,0.0,0.0,0.0,0.0,0.0,0.0,0.0,-0.082,0.033,-9.577,0.0,0.0,0.0,0.0,0.0,0.0,0.0,0.0,0.0
1581113226813341889,128,1581113226813206911,,0.864856907459,-0.00324041031807,-0.497973713588,0.867178037623,0.0,0.0,0.0,0.0,0.0,0.0,0.0,0.0,0.0,-0.000109,0.000228,0.000288,0.0,0.0,0.0,0.0,0.0,0.0,0.0,0.0,0.0,-0.089,0.018,-9.585,0.0,0.0,0.0,0.0,0.0,0.0,0.0,0.0,0.0
1581113226838976929,129,1581113226838818073,,0.864870049906,-0.00323290776378,-0.497958586385,0.867186771124,0.0,0.0,0.0,0.0,0.0,0.0,0.0,0.0,0.0,-0.00079,0.000893,0.000123,0.0,0.0,0.0,0.0,0.0,0.0,0.0,0.0,0.0,-0.089,0.022,-9.598,0.0,0.0,0.0,0.0,0.0,0.0,0.0,0.0,0.0
1581113226863515040,130,1581113226863382101,,0.864856919677,-0.00323715586833,-0.497981260881,0.867173766802,0.0,0.0,0.0,0.0,0.0,0.0,0.0,0.0,0.0,0.001023,-0.000625,-0.000594,0.0,0.0,0.0,0.0,0.0,0.0,0.0,0.0,0.0,-0.081,0.028,-9.601,0.0,0.0,0.0,0.0,0.0,0.0,0.0,0.0,0.0
1581113226888545953,131,1581113226888417959,,0.864861288341,-0.00323284269611,-0.497973721574,0.867178079975,0.0,0.0,0.0,0.0,0.0,0.0,0.0,0.0,0.0,-5e-06,0.0007,-0.00038,0.0,0.0,0.0,0.0,0.0,0.0,0.0,0.0,0.0,-0.095,0.033,-9.599,0.0,0.0,0.0,0.0,0.0,0.0,0.0,0.0,0.0
1581113226913353092,132,1581113226913222074,,0.864852526512,-0.00322517758431,-0.497996432022,0.867165085042,0.0,0.0,0.0,0.0,0.0,0.0,0.0,0.0,0.0,-0.000558,-0.000624,-0.002007,0.0,0.0,0.0,0.0,0.0,0.0,0.0,0.0,0.0,-0.096,0.024,-9.586,0.0,0.0,0.0,0.0,0.0,0.0,0.0,0.0,0.0
1581113226938348036,133,1581113226938215017,,0.864848157716,-0.00322949099191,-0.498003971282,0.867160771634,0.0,0.0,0.0,0.0,0.0,0.0,0.0,0.0,0.0,0.000421,-0.000753,-0.001013,0.0,0.0,0.0,0.0,0.0,0.0,0.0,0.0,0.0,-0.08,0.021,-9.608,0.0,0.0,0.0,0.0,0.0,0.0,0.0,0.0,0.0
1581113226963512837,134,1581113226963387966,,0.864852538729,-0.00322952342289,-0.497996403858,0.867165117506,0.0,0.0,0.0,0.0,0.0,0.0,0.0,0.0,0.0,-0.000351,0.00061,0.001373,0.0,0.0,0.0,0.0,0.0,0.0,0.0,0.0,0.0,-0.066,0.037,-9.585,0.0,0.0,0.0,0.0,0.0,0.0,0.0,0.0,0.0
1581113226989016660,135,1581113226988863945,,0.864861300558,-0.00322198830708,-0.497988844373,0.867169505493,0.0,0.0,0.0,0.0,0.0,0.0,0.0,0.0,0.0,-0.000184,0.00018,0.000994,0.0,0.0,0.0,0.0,0.0,0.0,0.0,0.0,0.0,-0.095,0.048,-9.607,0.0,0.0,0.0,0.0,0.0,0.0,0.0,0.0,0.0
1581113227013951394,136,1581113227013828039,,0.864848157716,-0.00323709093126,-0.497996395842,0.867165075258,0.0,0.0,0.0,0.0,0.0,0.0,0.0,0.0,0.0,-0.000306,-0.000155,0.000551,0.0,0.0,0.0,0.0,0.0,0.0,0.0,0.0,0.0,-0.101,0.018,-9.574,0.0,0.0,0.0,0.0,0.0,0.0,0.0,0.0,0.0
1581113227038466637,137,1581113227038336038,,0.864856931828,-0.00323390162592,-0.497988808193,0.867169495709,0.0,0.0,0.0,0.0,0.0,0.0,0.0,0.0,0.0,0.00126,-0.000348,0.000475,0.0,0.0,0.0,0.0,0.0,0.0,0.0,0.0,0.0,-0.086,0.026,-9.587,0.0,0.0,0.0,0.0,0.0,0.0,0.0,0.0,0.0
1581113227072161529,138,1581113227071906089,,0.864870074276,-0.00322639873225,-0.497973681197,0.867178229265,0.0,0.0,0.0,0.0,0.0,0.0,0.0,0.0,0.0,0.000533,0.000974,-0.00133,0.0,0.0,0.0,0.0,0.0,0.0,0.0,0.0,0.0,-0.081,0.028,-9.598,0.0,0.0,0.0,0.0,0.0,0.0,0.0,0.0,0.0
1581113227088767698,139,1581113227088619947,,0.864865681374,-0.00322962071436,-0.497973701357,0.867178154724,0.0,0.0,0.0,0.0,0.0,0.0,0.0,0.0,0.0,-0.000158,-0.000583,0.000538,0.0,0.0,0.0,0.0,0.0,0.0,0.0,0.0,0.0,-0.086,0.009,-9.596,0.0,0.0,0.0,0.0,0.0,0.0,0.0,0.0,0.0
1581113227113439499,140,1581113227113317966,,0.864861300558,-0.00322198830708,-0.497988844373,0.867169505493,0.0,0.0,0.0,0.0,0.0,0.0,0.0,0.0,0.0,-0.001453,-0.001244,-0.000153,0.0,0.0,0.0,0.0,0.0,0.0,0.0,0.0,0.0,-0.096,0.02,-9.607,0.0,0.0,0.0,0.0,0.0,0.0,0.0,0.0,0.0
1581113227138624215,141,1581113227138493061,,0.864856919677,-0.00322195591427,-0.497996411835,0.867165159687,0.0,0.0,0.0,0.0,0.0,0.0,0.0,0.0,0.0,0.000593,-0.000542,-0.001038,0.0,0.0,0.0,0.0,0.0,0.0,0.0,0.0,0.0,-0.095,0.029,-9.589,0.0,0.0,0.0,0.0,0.0,0.0,0.0,0.0,0.0
1581113227163466104,142,1581113227163360118,,0.864848145498,-0.00321754515719,-0.498011574744,0.867156435452,0.0,0.0,0.0,0.0,0.0,0.0,0.0,0.0,0.0,-0.000561,-0.000713,0.000208,0.0,0.0,0.0,0.0,0.0,0.0,0.0,0.0,0.0,-0.092,0.04,-9.614,0.0,0.0,0.0,0.0,0.0,0.0,0.0,0.0,0.0
1581113227188231911,143,1581113227188069105,,0.864852538729,-0.00322952342289,-0.497996403858,0.867165117506,0.0,0.0,0.0,0.0,0.0,0.0,0.0,0.0,0.0,0.000107,-0.000657,-0.000649,0.0,0.0,0.0,0.0,0.0,0.0,0.0,0.0,0.0,-0.064,0.041,-9.589,0.0,0.0,0.0,0.0,0.0,0.0,0.0,0.0,0.0
1581113227213099741,144,1581113227212985992,,0.864861300558,-0.00322958828411,-0.497981268896,0.86717380905,0.0,0.0,0.0,0.0,0.0,0.0,0.0,0.0,0.0,0.000611,-0.00081,0.00011,0.0,0.0,0.0,0.0,0.0,0.0,0.0,0.0,0.0,-0.109,-0.003,-9.594,0.0,0.0,0.0,0.0,0.0,0.0,0.0,0.0,0.0
1581113227238320005,145,1581113227238200902,,0.864861300558,-0.00322958828411,-0.497981268896,0.86717380905,0.0,0.0,0.0,0.0,0.0,0.0,0.0,0.0,0.0,-0.000646,-0.000203,0.000952,0.0,0.0,0.0,0.0,0.0,0.0,0.0,0.0,0.0,-0.084,0.046,-9.616,0.0,0.0,0.0,0.0,0.0,0.0,0.0,0.0,0.0
1581113227263460217,146,1581113227263331890,,0.864856907459,-0.00321761007562,-0.497996439933,0.867165127261,0.0,0.0,0.0,0.0,0.0,0.0,0.0,0.0,0.0,0.000437,-0.000225,0.001548,0.0,0.0,0.0,0.0,0.0,0.0,0.0,0.0,0.0,-0.074,0.016,-9.566,0.0,0.0,0.0,0.0,0.0,0.0,0.0,0.0,0.0
1581113227288354707,147,1581113227288238048,,0.864848157716,-0.00322949099191,-0.498003971282,0.867160771634,0.0,0.0,0.0,0.0,0.0,0.0,0.0,0.0,0.0,0.001435,0.00065,0.000731,0.0,0.0,0.0,0.0,0.0,0.0,0.0,0.0,0.0,-0.084,0.026,-9.601,0.0,0.0,0.0,0.0,0.0,0.0,0.0,0.0,0.0
1581113227313105555,148,1581113227312949895,,0.864839407643,-0.00324897183679,-0.498003926879,0.867160719546,0.0,0.0,0.0,0.0,0.0,0.0,0.0,0.0,0.0,-0.000544,0.000914,-0.000592,0.0,0.0,0.0,0.0,0.0,0.0,0.0,0.0,0.0,-0.069,0.028,-9.588,0.0,0.0,0.0,0.0,0.0,0.0,0.0,0.0,0.0
1581113227338057478,149,1581113227337896108,,0.864852550881,-0.00324146917214,-0.497988800112,0.867169453499,0.0,0.0,0.0,0.0,0.0,0.0,0.0,0.0,0.0,0.00019,-0.000255,-0.000245,0.0,0.0,0.0,0.0,0.0,0.0,0.0,0.0,0.0,-0.08,0.03,-9.591,0.0,0.0,0.0,0.0,0.0,0.0,0.0,0.0,0.0
1581113227364451900,150,1581113227364317893,,0.864843800873,-0.00324575027071,-0.498003906693,0.867160794192,0.0,0.0,0.0,0.0,0.0,0.0,0.0,0.0,0.0,0.0003,-0.000561,-0.00188,0.0,0.0,0.0,0.0,0.0,0.0,0.0,0.0,0.0,-0.093,0.04,-9.58,0.0,0.0,0.0,0.0,0.0,0.0,0.0,0.0,0.0
1581113227388540921,151,1581113227388426065,,0.864843800873,-0.00324575027071,-0.498003906693,0.867160794192,0.0,0.0,0.0,0.0,0.0,0.0,0.0,0.0,0.0,-0.000324,-0.000399,-0.000258,0.0,0.0,0.0,0.0,0.0,0.0,0.0,0.0,0.0,-0.077,0.033,-9.62,0.0,0.0,0.0,0.0,0.0,0.0,0.0,0.0,0.0
1581113227413548753,152,1581113227413410902,,0.864848181953,-0.0032381828004,-0.498003914841,0.867160836364,0.0,0.0,0.0,0.0,0.0,0.0,0.0,0.0,0.0,0.000764,0.000456,0.000922,0.0,0.0,0.0,0.0,0.0,0.0,0.0,0.0,0.0,-0.099,0.025,-9.588,0.0,0.0,0.0,0.0,0.0,0.0,0.0,0.0,0.0
1581113227438111791,153,1581113227437999963,,0.864856943914,-0.00323824739797,-0.497988779953,0.86716952804,0.0,0.0,0.0,0.0,0.0,0.0,0.0,0.0,0.0,-0.00013,0.000298,-0.00131,0.0,0.0,0.0,0.0,0.0,0.0,0.0,0.0,0.0,-0.084,0.02,-9.633,0.0,0.0,0.0,0.0,0.0,0.0,0.0,0.0,0.0
1581113227463072389,154,1581113227462912082,,0.864870086362,-0.00323074437229,-0.497973653023,0.867178261558,0.0,0.0,0.0,0.0,0.0,0.0,0.0,0.0,0.0,0.001176,0.000526,0.001661,0.0,0.0,0.0,0.0,0.0,0.0,0.0,0.0,0.0,-0.085,0.019,-9.582,0.0,0.0,0.0,0.0,0.0,0.0,0.0,0.0,0.0
1581113227488839753,155,1581113227488717079,,0.864870086362,-0.00322314452748,-0.497981228633,0.867173957925,0.0,0.0,0.0,0.0,0.0,0.0,0.0,0.0,0.0,-0.000161,0.000595,0.001507,0.0,0.0,0.0,0.0,0.0,0.0,0.0,0.0,0.0,-0.091,0.02,-9.609,0.0,0.0,0.0,0.0,0.0,0.0,0.0,0.0,0.0
1581113227513203375,156,1581113227513056993,,0.864852562966,-0.00323061532985,-0.498003922951,0.86716087847,0.0,0.0,0.0,0.0,0.0,0.0,0.0,0.0,0.0,0.000663,0.000717,-0.000127,0.0,0.0,0.0,0.0,0.0,0.0,0.0,0.0,0.0,-0.101,0.022,-9.622,0.0,0.0,0.0,0.0,0.0,0.0,0.0,0.0,0.0
1581113227538608733,157,1581113227538506031,,0.864843800873,-0.00324575027071,-0.498003906693,0.867160794192,0.0,0.0,0.0,0.0,0.0,0.0,0.0,0.0,0.0,0.000639,-0.000639,5.3e-05,0.0,0.0,0.0,0.0,0.0,0.0,0.0,0.0,0.0,-0.076,0.034,-9.576,0.0,0.0,0.0,0.0,0.0,0.0,0.0,0.0,0.0
1581113227563139960,158,1581113227563034057,,0.864848169867,-0.00323383689628,-0.49800394308,0.867160804032,0.0,0.0,0.0,0.0,0.0,0.0,0.0,0.0,0.0,-0.000595,2e-05,0.000591,0.0,0.0,0.0,0.0,0.0,0.0,0.0,0.0,0.0,-0.092,0.032,-9.6,0.0,0.0,0.0,0.0,0.0,0.0,0.0,0.0,0.0
1581113227587784503,159,1581113227587681055,,0.864839395491,-0.00323702599321,-0.498011530652,0.867156383449,0.0,0.0,0.0,0.0,0.0,0.0,0.0,0.0,0.0,-0.000707,-0.000849,-0.000194,0.0,0.0,0.0,0.0,0.0,0.0,0.0,0.0,0.0,-0.077,0.031,-9.619,0.0,0.0,0.0,0.0,0.0,0.0,0.0,0.0,0.0
1581113227613217313,160,1581113227613065004,,0.864830633003,-0.00324456091816,-0.498019089946,0.867151995132,0.0,0.0,0.0,0.0,0.0,0.0,0.0,0.0,0.0,-0.00033,-0.000382,-0.001598,0.0,0.0,0.0,0.0,0.0,0.0,0.0,0.0,0.0,-0.092,0.018,-9.62,0.0,0.0,0.0,0.0,0.0,0.0,0.0,0.0,0.0
1581113227639369821,161,1581113227639239072,,0.864830645155,-0.00324890695447,-0.498019061613,0.867152027606,0.0,0.0,0.0,0.0,0.0,0.0,0.0,0.0,0.0,-0.000443,0.000328,-0.000881,0.0,0.0,0.0,0.0,0.0,0.0,0.0,0.0,0.0,-0.077,0.026,-9.6,0.0,0.0,0.0,0.0,0.0,0.0,0.0,0.0,0.0
1581113227663109456,162,1581113227662981986,,0.864830645155,-0.00324130715658,-0.498026637044,0.867147723813,0.0,0.0,0.0,0.0,0.0,0.0,0.0,0.0,0.0,-0.000608,-0.001266,-0.001743,0.0,0.0,0.0,0.0,0.0,0.0,0.0,0.0,0.0,-0.066,0.038,-9.603,0.0,0.0,0.0,0.0,0.0,0.0,0.0,0.0,0.0
1581113227689493502,163,1581113227689389944,,0.864830645155,-0.00324890695447,-0.498019061613,0.867152027606,0.0,0.0,0.0,0.0,0.0,0.0,0.0,0.0,0.0,0.000427,0.000114,-0.000877,0.0,0.0,0.0,0.0,0.0,0.0,0.0,0.0,0.0,-0.067,0.026,-9.62,0.0,0.0,0.0,0.0,0.0,0.0,0.0,0.0,0.0
1581113227713276120,164,1581113227713035106,,0.864830645155,-0.00324890695447,-0.498019061613,0.867152027606,0.0,0.0,0.0,0.0,0.0,0.0,0.0,0.0,0.0,-0.000826,-0.000345,-0.000537,0.0,0.0,0.0,0.0,0.0,0.0,0.0,0.0,0.0,-0.095,0.027,-9.612,0.0,0.0,0.0,0.0,0.0,0.0,0.0,0.0,0.0
1581113227738807077,165,1581113227738704919,,0.864830633003,-0.00324456091816,-0.498019089946,0.867151995132,0.0,0.0,0.0,0.0,0.0,0.0,0.0,0.0,0.0,-0.00093,-0.001085,-7.4e-05,0.0,0.0,0.0,0.0,0.0,0.0,0.0,0.0,0.0,-0.08,0.028,-9.605,0.0,0.0,0.0,0.0,0.0,0.0,0.0,0.0,0.0
1581113227763108153,166,1581113227762998104,,0.864839383274,-0.00324028002809,-0.498003983508,0.867160654532,0.0,0.0,0.0,0.0,0.0,0.0,0.0,0.0,0.0,3e-05,0.000753,0.001207,0.0,0.0,0.0,0.0,0.0,0.0,0.0,0.0,0.0,-0.09,0.036,-9.616,0.0,0.0,0.0,0.0,0.0,0.0,0.0,0.0,0.0
1581113227789419718,167,1581113227789313077,,0.864835002063,-0.00324024745497,-0.498011550894,0.867156308595,0.0,0.0,0.0,0.0,0.0,0.0,0.0,0.0,0.0,-0.000442,-0.000587,-0.001697,0.0,0.0,0.0,0.0,0.0,0.0,0.0,0.0,0.0,-0.089,0.034,-9.637,0.0,0.0,0.0,0.0,0.0,0.0,0.0,0.0,0.0
1581113227813523640,168,1581113227813400030,,0.864835002063,-0.00324024745497,-0.498011550894,0.867156308595,0.0,0.0,0.0,0.0,0.0,0.0,0.0,0.0,0.0,0.00043,-0.000123,0.003029,0.0,0.0,0.0,0.0,0.0,0.0,0.0,0.0,0.0,-0.063,0.035,-9.617,0.0,0.0,0.0,0.0,0.0,0.0,0.0,0.0,0.0
1581113227839037217,169,1581113227838890075,,0.864848145498,-0.00324034517357,-0.497988848624,0.86716934621,0.0,0.0,0.0,0.0,0.0,0.0,0.0,0.0,0.0,-0.001346,-0.000493,0.000561,0.0,0.0,0.0,0.0,0.0,0.0,0.0,0.0,0.0,-0.085,0.032,-9.612,0.0,0.0,0.0,0.0,0.0,0.0,0.0,0.0,0.0
1581113227862918261,170,1581113227862766981,,0.864839383274,-0.00324028002809,-0.498003983508,0.867160654532,0.0,0.0,0.0,0.0,0.0,0.0,0.0,0.0,0.0,-0.001295,0.000385,-0.002218,0.0,0.0,0.0,0.0,0.0,0.0,0.0,0.0,0.0,-0.075,0.018,-9.586,0.0,0.0,0.0,0.0,0.0,0.0,0.0,0.0,0.0
1581113227890175993,171,1581113227889986991,,0.864839383274,-0.00324028002809,-0.498003983508,0.867160654532,0.0,0.0,0.0,0.0,0.0,0.0,0.0,0.0,0.0,-0.001117,-0.000941,-0.001743,0.0,0.0,0.0,0.0,0.0,0.0,0.0,0.0,0.0,-0.103,0.043,-9.576,0.0,0.0,0.0,0.0,0.0,0.0,0.0,0.0,0.0
1581113227913179824,172,1581113227913033008,,0.864830596154,-0.00324672315848,-0.498004024161,0.867160504201,0.0,0.0,0.0,0.0,0.0,0.0,0.0,0.0,0.0,0.000218,-0.001364,-0.000939,0.0,0.0,0.0,0.0,0.0,0.0,0.0,0.0,0.0,-0.103,0.027,-9.609,0.0,0.0,0.0,0.0,0.0,0.0,0.0,0.0,0.0
1581113227939574470,173,1581113227939472913,,0.864813057974,-0.00324224586361,-0.498034321782,0.867143087238,0.0,0.0,0.0,0.0,0.0,0.0,0.0,0.0,0.0,0.00022,0.000693,0.000303,0.0,0.0,0.0,0.0,0.0,0.0,0.0,0.0,0.0,-0.09,0.021,-9.622,0.0,0.0,0.0,0.0,0.0,0.0,0.0,0.0,0.0
1581113227964475010,174,1581113227964334964,,0.864817439514,-0.00323467854532,-0.498034329649,0.867143129835,0.0,0.0,0.0,0.0,0.0,0.0,0.0,0.0,0.0,-0.000919,-0.000426,-0.001211,0.0,0.0,0.0,0.0,0.0,0.0,0.0,0.0,0.0,-0.087,0.009,-9.612,0.0,0.0,0.0,0.0,0.0,0.0,0.0,0.0,0.0
1581113227988881912,175,1581113227988776922,,0.864813070389,-0.00323899197052,-0.498041868635,0.86713881641,0.0,0.0,0.0,0.0,0.0,0.0,0.0,0.0,0.0,2.3e-05,-0.000365,0.001021,0.0,0.0,0.0,0.0,0.0,0.0,0.0,0.0,0.0,-0.07,0.042,-9.574,0.0,0.0,0.0,0.0,0.0,0.0,0.0,0.0,0.0
1581113228013903671,176,1581113228013797998,,0.864808688783,-0.0032313592769,-0.498057010883,0.867130166301,0.0,0.0,0.0,0.0,0.0,0.0,0.0,0.0,0.0,0.001459,0.000119,0.000531,0.0,0.0,0.0,0.0,0.0,0.0,0.0,0.0,0.0,-0.08,0.031,-9.604,0.0,0.0,0.0,0.0,0.0,0.0,0.0,0.0,0.0
1581113228039296509,177,1581113228039182901,,0.864799925373,-0.00323129386283,-0.498072145083,0.867121473434,0.0,0.0,0.0,0.0,0.0,0.0,0.0,0.0,0.0,-0.000549,4.3e-05,0.001586,0.0,0.0,0.0,0.0,0.0,0.0,0.0,0.0,0.0,-0.076,0.034,-9.607,0.0,0.0,0.0,0.0,0.0,0.0,0.0,0.0,0.0
1581113228064511547,178,1581113228064404010,,0.864795531155,-0.00322691458984,-0.498079740306,0.867117094161,0.0,0.0,0.0,0.0,0.0,0.0,0.0,0.0,0.0,-0.000892,0.000712,0.000777,0.0,0.0,0.0,0.0,0.0,0.0,0.0,0.0,0.0,-0.095,0.04,-9.597,0.0,0.0,0.0,0.0,0.0,0.0,0.0,0.0,0.0
1581113228089605914,179,1581113228089492082,,0.864795518675,-0.00322256802402,-0.498079768447,0.867117061355,0.0,0.0,0.0,0.0,0.0,0.0,0.0,0.0,0.0,0.000421,0.001261,-0.000424,0.0,0.0,0.0,0.0,0.0,0.0,0.0,0.0,0.0,-0.087,0.036,-9.6,0.0,0.0,0.0,0.0,0.0,0.0,0.0,0.0,0.0
1581113228114003440,180,1581113228113857984,,0.864786754871,-0.0032301022374,-0.498087327686,0.867112672187,0.0,0.0,0.0,0.0,0.0,0.0,0.0,0.0,0.0,0.000152,-5.5e-05,-0.001888,0.0,0.0,0.0,0.0,0.0,0.0,0.0,0.0,0.0,-0.081,0.045,-9.589,0.0,0.0,0.0,0.0,0.0,0.0,0.0,0.0,0.0
1581113228140950747,181,1581113228140850067,,0.864799900479,-0.00322260086349,-0.498072201404,0.867121407887,0.0,0.0,0.0,0.0,0.0,0.0,0.0,0.0,0.0,-0.001176,-0.000201,0.000329,0.0,0.0,0.0,0.0,0.0,0.0,0.0,0.0,0.0,-0.107,0.021,-9.619,0.0,0.0,0.0,0.0,0.0,0.0,0.0,0.0,0.0
1581113228164065276,182,1581113228163959980,,0.864795506129,-0.00321822145795,-0.49807979655,0.867117028482,0.0,0.0,0.0,0.0,0.0,0.0,0.0,0.0,0.0,-0.000175,-8.9e-05,0.000148,0.0,0.0,0.0,0.0,0.0,0.0,0.0,0.0,0.0,-0.09,0.017,-9.605,0.0,0.0,0.0,0.0,0.0,0.0,0.0,0.0,0.0
1581113228190047545,183,1581113228189924955,,0.864786742325,-0.00322575560536,-0.498087355855,0.867112639276,0.0,0.0,0.0,0.0,0.0,0.0,0.0,0.0,0.0,-0.000753,-0.000795,0.001257,0.0,0.0,0.0,0.0,0.0,0.0,0.0,0.0,0.0,-0.078,0.031,-9.598,0.0,0.0,0.0,0.0,0.0,0.0,0.0,0.0,0.0
1581113228214173569,184,1581113228214030981,,0.864786742325,-0.00322575560536,-0.498087355855,0.867112639276,0.0,0.0,0.0,0.0,0.0,0.0,0.0,0.0,0.0,-0.00076,-0.000858,6.6e-05,0.0,0.0,0.0,0.0,0.0,0.0,0.0,0.0,0.0,-0.092,0.043,-9.598,0.0,0.0,0.0,0.0,0.0,0.0,0.0,0.0,0.0
1581113228253838909,185,1581113228252131938,,0.864786742325,-0.00322575560536,-0.498087355855,0.867112639276,0.0,0.0,0.0,0.0,0.0,0.0,0.0,0.0,0.0,0.000608,-0.000181,-0.000659,0.0,0.0,0.0,0.0,0.0,0.0,0.0,0.0,0.0,-0.099,0.052,-9.578,0.0,0.0,0.0,0.0,0.0,0.0,0.0,0.0,0.0
1581113228267794199,186,1581113228267604112,,0.864786742325,-0.00322575560536,-0.498087355855,0.867112639276,0.0,0.0,0.0,0.0,0.0,0.0,0.0,0.0,0.0,-0.001198,-0.000726,-0.000395,0.0,0.0,0.0,0.0,0.0,0.0,0.0,0.0,0.0,-0.094,0.03,-9.604,0.0,0.0,0.0,0.0,0.0,0.0,0.0,0.0,0.0
1581113228289301917,187,1581113228289175033,,0.864799887933,-0.00321825436346,-0.498072229508,0.867121375015,0.0,0.0,0.0,0.0,0.0,0.0,0.0,0.0,0.0,-6.2e-05,0.001028,0.00133,0.0,0.0,0.0,0.0,0.0,0.0,0.0,0.0,0.0,-0.079,0.031,-9.617,0.0,0.0,0.0,0.0,0.0,0.0,0.0,0.0,0.0
1581113228314711823,188,1581113228314558982,,0.864795506129,-0.00321822145795,-0.49807979655,0.867117028482,0.0,0.0,0.0,0.0,0.0,0.0,0.0,0.0,0.0,0.000259,-0.000698,0.000703,0.0,0.0,0.0,0.0,0.0,0.0,0.0,0.0,0.0,-0.093,0.042,-9.606,0.0,0.0,0.0,0.0,0.0,0.0,0.0,0.0,0.0
1581113228339125789,189,1581113228338979005,,0.864799887933,-0.00322585443568,-0.498064654729,0.867125678875,0.0,0.0,0.0,0.0,0.0,0.0,0.0,0.0,0.0,-0.000312,-5.4e-05,-9.5e-05,0.0,0.0,0.0,0.0,0.0,0.0,0.0,0.0,0.0,-0.09,0.021,-9.594,0.0,0.0,0.0,0.0,0.0,0.0,0.0,0.0,0.0
1581113228363894237,190,1581113228363790988,,0.864817414488,-0.00322598620599,-0.498034386029,0.867143064083,0.0,0.0,0.0,0.0,0.0,0.0,0.0,0.0,0.0,0.000239,0.000735,0.000909,0.0,0.0,0.0,0.0,0.0,0.0,0.0,0.0,0.0,-0.082,0.024,-9.614,0.0,0.0,0.0,0.0,0.0,0.0,0.0,0.0,0.0
1581113228389146108,191,1581113228389038085,,0.86482617737,-0.00322605208968,-0.498019251452,0.867151756291,0.0,0.0,0.0,0.0,0.0,0.0,0.0,0.0,0.0,-0.000382,-0.000775,-0.000596,0.0,0.0,0.0,0.0,0.0,0.0,0.0,0.0,0.0,-0.107,0.013,-9.572,0.0,0.0,0.0,0.0,0.0,0.0,0.0,0.0,0.0
1581113228414437726,192,1581113228414320945,,0.864830571259,-0.00323043100283,-0.498011655934,0.867156135204,0.0,0.0,0.0,0.0,0.0,0.0,0.0,0.0,0.0,0.000402,0.000722,2.7e-05,0.0,0.0,0.0,0.0,0.0,0.0,0.0,0.0,0.0,-0.082,0.041,-9.589,0.0,0.0,0.0,0.0,0.0,0.0,0.0,0.0,0.0
1581113228439819662,193,1581113228439714908,,0.8648393212,-0.00322615091336,-0.497996549301,0.867164794107,0.0,0.0,0.0,0.0,0.0,0.0,0.0,0.0,0.0,0.000104,5e-05,0.000889,0.0,0.0,0.0,0.0,0.0,0.0,0.0,0.0,0.0,-0.084,0.011,-9.6,0.0,0.0,0.0,0.0,0.0,0.0,0.0,0.0,0.0
1581113228464465386,194,1581113228464325904,,0.8648393212,-0.00322615091336,-0.497996549301,0.867164794107,0.0,0.0,0.0,0.0,0.0,0.0,0.0,0.0,0.0,-0.000401,1.8e-05,-0.000178,0.0,0.0,0.0,0.0,0.0,0.0,0.0,0.0,0.0,-0.073,0.012,-9.578,0.0,0.0,0.0,0.0,0.0,0.0,0.0,0.0,0.0
1581113228489709338,195,1581113228489577054,,0.864843714891,-0.00323052962766,-0.497988953669,0.867169172822,0.0,0.0,0.0,0.0,0.0,0.0,0.0,0.0,0.0,0.000567,0.000306,0.001519,0.0,0.0,0.0,0.0,0.0,0.0,0.0,0.0,0.0,-0.091,0.057,-9.624,0.0,0.0,0.0,0.0,0.0,0.0,0.0,0.0,0.0
1581113228514404930,196,1581113228514270067,,0.864843702344,-0.00322618385409,-0.497988981842,0.867169139914,0.0,0.0,0.0,0.0,0.0,0.0,0.0,0.0,0.0,-6.4e-05,-0.000342,0.001756,0.0,0.0,0.0,0.0,0.0,0.0,0.0,0.0,0.0,-0.086,0.03,-9.58,0.0,0.0,0.0,0.0,0.0,0.0,0.0,0.0,0.0
1581113228539734869,197,1581113228539554119,,0.864852464436,-0.00321864921045,-0.497981422039,0.867173528262,0.0,0.0,0.0,0.0,0.0,0.0,0.0,0.0,0.0,-0.000683,-0.001176,-0.000133,0.0,0.0,0.0,0.0,0.0,0.0,0.0,0.0,0.0,-0.082,0.028,-9.601,0.0,0.0,0.0,0.0,0.0,0.0,0.0,0.0,0.0
1581113228564614468,198,1581113228564479112,,0.864852464436,-0.00322624973483,-0.497973846809,0.867177831329,0.0,0.0,0.0,0.0,0.0,0.0,0.0,0.0,0.0,-0.001145,0.00098,3.3e-05,0.0,0.0,0.0,0.0,0.0,0.0,0.0,0.0,0.0,-0.076,0.016,-9.611,0.0,0.0,0.0,0.0,0.0,0.0,0.0,0.0,0.0
1581113228589538671,199,1581113228589402914,,0.864861238812,-0.00322306059036,-0.497966258822,0.867182252415,0.0,0.0,0.0,0.0,0.0,0.0,0.0,0.0,0.0,-0.001063,0.000839,0.000998,0.0,0.0,0.0,0.0,0.0,0.0,0.0,0.0,0.0,-0.075,0.022,-9.594,0.0,0.0,0.0,0.0,0.0,0.0,0.0,0.0,0.0
1581113228614353511,200,1581113228614224910,,0.864852464436,-0.00321864921045,-0.497981422039,0.867173528262,0.0,0.0,0.0,0.0,0.0,0.0,0.0,0.0,0.0,5.9e-05,-0.001037,-0.002237,0.0,0.0,0.0,0.0,0.0,0.0,0.0,0.0,0.0,-0.116,0.042,-9.568,0.0,0.0,0.0,0.0,0.0,0.0,0.0,0.0,0.0
1581113228639212569,201,1581113228639000892,,0.864843702344,-0.00321858340506,-0.497996556996,0.867164836715,0.0,0.0,0.0,0.0,0.0,0.0,0.0,0.0,0.0,0.000111,-0.001121,0.000557,0.0,0.0,0.0,0.0,0.0,0.0,0.0,0.0,0.0,-0.089,0.018,-9.599,0.0,0.0,0.0,0.0,0.0,0.0,0.0,0.0,0.0
1581113228664569287,202,1581113228664386034,,0.864848070811,-0.00320667005655,-0.497996592656,0.867164846358,0.0,0.0,0.0,0.0,0.0,0.0,0.0,0.0,0.0,-0.000111,0.000581,-0.000954,0.0,0.0,0.0,0.0,0.0,0.0,0.0,0.0,0.0,-0.089,0.046,-9.626,0.0,0.0,0.0,0.0,0.0,0.0,0.0,0.0,0.0
1581113228689771388,203,1581113228689604043,,0.864843677053,-0.00320229121911,-0.498004188042,0.867160467521,0.0,0.0,0.0,0.0,0.0,0.0,0.0,0.0,0.0,0.000352,0.000353,0.00076,0.0,0.0,0.0,0.0,0.0,0.0,0.0,0.0,0.0,-0.081,0.024,-9.599,0.0,0.0,0.0,0.0,0.0,0.0,0.0,0.0,0.0
1581113228714568440,204,1581113228714436054,,0.864843677053,-0.00320229121911,-0.498004188042,0.867160467521,0.0,0.0,0.0,0.0,0.0,0.0,0.0,0.0,0.0,0.000166,0.000897,0.000155,0.0,0.0,0.0,0.0,0.0,0.0,0.0,0.0,0.0,-0.089,0.026,-9.603,0.0,0.0,0.0,0.0,0.0,0.0,0.0,0.0,0.0
1581113228739496559,205,1581113228739343881,,0.864834927377,-0.0032065712623,-0.498019294808,0.867151808541,0.0,0.0,0.0,0.0,0.0,0.0,0.0,0.0,0.0,0.001104,-0.000498,0.001063,0.0,0.0,0.0,0.0,0.0,0.0,0.0,0.0,0.0,-0.073,0.039,-9.591,0.0,0.0,0.0,0.0,0.0,0.0,0.0,0.0,0.0
1581113228764391309,206,1581113228764259099,,0.864839308587,-0.00320660419396,-0.498011727462,0.867156154546,0.0,0.0,0.0,0.0,0.0,0.0,0.0,0.0,0.0,-0.001877,0.000205,0.001035,0.0,0.0,0.0,0.0,0.0,0.0,0.0,0.0,0.0,-0.092,0.025,-9.606,0.0,0.0,0.0,0.0,0.0,0.0,0.0,0.0,0.0
1581113228790560766,207,1581113228790397882,,0.864839308587,-0.00321420459605,-0.498004152486,0.867160457906,0.0,0.0,0.0,0.0,0.0,0.0,0.0,0.0,0.0,0.00017,6.7e-05,-0.000491,0.0,0.0,0.0,0.0,0.0,0.0,0.0,0.0,0.0,-0.1,0.037,-9.595,0.0,0.0,0.0,0.0,0.0,0.0,0.0,0.0,0.0
1581113228814724239,208,1581113228814585924,,0.864834939989,-0.0032185175987,-0.498011691802,0.867156144903,0.0,0.0,0.0,0.0,0.0,0.0,0.0,0.0,0.0,-0.000136,0.000404,-0.000247,0.0,0.0,0.0,0.0,0.0,0.0,0.0,0.0,0.0,-0.087,0.026,-9.596,0.0,0.0,0.0,0.0,0.0,0.0,0.0,0.0,0.0
1581113228839571988,209,1581113228839441061,,0.864821795962,-0.00321841888732,-0.498034393726,0.86714310669,0.0,0.0,0.0,0.0,0.0,0.0,0.0,0.0,0.0,0.000521,-9.1e-05,-0.000554,0.0,0.0,0.0,0.0,0.0,0.0,0.0,0.0,0.0,-0.082,0.047,-9.616,0.0,0.0,0.0,0.0,0.0,0.0,0.0,0.0,0.0
1581113228864430915,210,1581113228864308118,,0.864817401876,-0.0032140397469,-0.498041989025,0.86713872755,0.0,0.0,0.0,0.0,0.0,0.0,0.0,0.0,0.0,-0.000726,0.000434,0.000195,0.0,0.0,0.0,0.0,0.0,0.0,0.0,0.0,0.0,-0.091,0.03,-9.607,0.0,0.0,0.0,0.0,0.0,0.0,0.0,0.0,0.0
1581113228889357762,211,1581113228889224052,,0.86482178335,-0.00320647246585,-0.498041996618,0.867138770129,0.0,0.0,0.0,0.0,0.0,0.0,0.0,0.0,0.0,0.000404,0.000283,-0.001982,0.0,0.0,0.0,0.0,0.0,0.0,0.0,0.0,0.0,-0.07,0.033,-9.592,0.0,0.0,0.0,0.0,0.0,0.0,0.0,0.0,0.0
1581113228914940936,212,1581113228914813995,,0.864834939989,-0.00321091730039,-0.498019266806,0.86715184144,0.0,0.0,0.0,0.0,0.0,0.0,0.0,0.0,0.0,-0.000556,-0.00024,-0.002186,0.0,0.0,0.0,0.0,0.0,0.0,0.0,0.0,0.0,-0.095,0.026,-9.618,0.0,0.0,0.0,0.0,0.0,0.0,0.0,0.0,0.0
1581113228939822441,213,1581113228939685106,,0.864843702344,-0.00321098303139,-0.498004132076,0.867160533383,0.0,0.0,0.0,0.0,0.0,0.0,0.0,0.0,0.0,0.000268,0.000708,-0.001452,0.0,0.0,0.0,0.0,0.0,0.0,0.0,0.0,0.0,-0.083,0.035,-9.587,0.0,0.0,0.0,0.0,0.0,0.0,0.0,0.0,0.0
1581113228964973752,214,1581113228964850902,,0.864826189916,-0.00322279789518,-0.498026798351,0.867147485698,0.0,0.0,0.0,0.0,0.0,0.0,0.0,0.0,0.0,0.000521,0.000433,0.001232,0.0,0.0,0.0,0.0,0.0,0.0,0.0,0.0,0.0,-0.081,0.04,-9.592,0.0,0.0,0.0,0.0,0.0,0.0,0.0,0.0,0.0
1581113228989545286,215,1581113228989413022,,0.864839333746,-0.0032076959433,-0.498019246453,0.86715191671,0.0,0.0,0.0,0.0,0.0,0.0,0.0,0.0,0.0,0.000703,0.000767,0.001435,0.0,0.0,0.0,0.0,0.0,0.0,0.0,0.0,0.0,-0.073,0.053,-9.603,0.0,0.0,0.0,0.0,0.0,0.0,0.0,0.0,0.0
1581113229014371804,216,1581113229014238119,,0.864852476983,-0.00319259383849,-0.498011694364,0.867156347391,0.0,0.0,0.0,0.0,0.0,0.0,0.0,0.0,0.0,-0.000332,0.001239,-0.00043,0.0,0.0,0.0,0.0,0.0,0.0,0.0,0.0,0.0,-0.063,0.024,-9.605,0.0,0.0,0.0,0.0,0.0,0.0,0.0,0.0,0.0
1581113229039730992,217,1581113229039598941,,0.864848083423,-0.00318821511463,-0.498019289553,0.867151968667,0.0,0.0,0.0,0.0,0.0,0.0,0.0,0.0,0.0,-0.000231,-0.000816,0.000197,0.0,0.0,0.0,0.0,0.0,0.0,0.0,0.0,0.0,-0.071,0.022,-9.586,0.0,0.0,0.0,0.0,0.0,0.0,0.0,0.0,0.0
1581113229064730017,218,1581113229064603090,,0.864834939989,-0.00318811685763,-0.498041991368,0.867138930255,0.0,0.0,0.0,0.0,0.0,0.0,0.0,0.0,0.0,-0.000123,-0.001164,-0.001695,0.0,0.0,0.0,0.0,0.0,0.0,0.0,0.0,0.0,-0.091,0.042,-9.593,0.0,0.0,0.0,0.0,0.0,0.0,0.0,0.0,0.0
1581113229089834226,219,1581113229089679956,,0.864830533422,-0.00317179140832,-0.498057188664,0.867130214365,0.0,0.0,0.0,0.0,0.0,0.0,0.0,0.0,0.0,-0.000548,-0.001394,-0.000117,0.0,0.0,0.0,0.0,0.0,0.0,0.0,0.0,0.0,-0.084,0.014,-9.62,0.0,0.0,0.0,0.0,0.0,0.0,0.0,0.0,0.0
1581113229114451641,220,1581113229114317893,,0.8648305461,-0.0031761377771,-0.498057160966,0.867130247179,0.0,0.0,0.0,0.0,0.0,0.0,0.0,0.0,0.0,0.000294,0.000126,-0.001245,0.0,0.0,0.0,0.0,0.0,0.0,0.0,0.0,0.0,-0.085,0.05,-9.596,0.0,0.0,0.0,0.0,0.0,0.0,0.0,0.0,0.0
1581113229139333511,221,1581113229139167070,,0.86482615208,-0.00317935861456,-0.498057181288,0.867130172012,0.0,0.0,0.0,0.0,0.0,0.0,0.0,0.0,0.0,0.000166,0.00063,0.002026,0.0,0.0,0.0,0.0,0.0,0.0,0.0,0.0,0.0,-0.091,0.022,-9.58,0.0,0.0,0.0,0.0,0.0,0.0,0.0,0.0,0.0
1581113229171422687,222,1581113229170967102,,0.864830520678,-0.0031674450393,-0.498057216324,0.867130181485,0.0,0.0,0.0,0.0,0.0,0.0,0.0,0.0,0.0,-0.000101,0.000257,0.001713,0.0,0.0,0.0,0.0,0.0,0.0,0.0,0.0,0.0,-0.083,0.051,-9.623,0.0,0.0,0.0,0.0,0.0,0.0,0.0,0.0,0.0
1581113229189797228,223,1581113229189646005,,0.864839270355,-0.00316316462835,-0.498042109595,0.867138841145,0.0,0.0,0.0,0.0,0.0,0.0,0.0,0.0,0.0,-0.000778,0.000254,0.000757,0.0,0.0,0.0,0.0,0.0,0.0,0.0,0.0,0.0,-0.076,0.016,-9.57,0.0,0.0,0.0,0.0,0.0,0.0,0.0,0.0,0.0
1581113229214180673,224,1581113229214071989,,0.864813007658,-0.00317166001708,-0.498087456915,0.867112828361,0.0,0.0,0.0,0.0,0.0,0.0,0.0,0.0,0.0,-0.000298,0.001311,0.001047,0.0,0.0,0.0,0.0,0.0,0.0,0.0,0.0,0.0,-0.076,0.023,-9.572,0.0,0.0,0.0,0.0,0.0,0.0,0.0,0.0,0.0
1581113229239519237,225,1581113229239406108,,0.864813020336,-0.00316840685086,-0.498095003593,0.867108556759,0.0,0.0,0.0,0.0,0.0,0.0,0.0,0.0,0.0,8.5e-05,2e-05,0.000154,0.0,0.0,0.0,0.0,0.0,0.0,0.0,0.0,0.0,-0.091,0.038,-9.604,0.0,0.0,0.0,0.0,0.0,0.0,0.0,0.0,0.0
1581113229275011561,226,1581113229274781942,,0.86480863873,-0.0031607744201,-0.498110144786,0.867099905411,0.0,0.0,0.0,0.0,0.0,0.0,0.0,0.0,0.0,0.000266,-0.000261,-0.00198,0.0,0.0,0.0,0.0,0.0,0.0,0.0,0.0,0.0,-0.09,0.026,-9.575,0.0,0.0,0.0,0.0,0.0,0.0,0.0,0.0,0.0
1581113229290165607,227,1581113229290021896,,0.864786729713,-0.0031682103791,-0.498140404608,0.867082475377,0.0,0.0,0.0,0.0,0.0,0.0,0.0,0.0,0.0,-0.00112,-8.6e-05,-0.002075,0.0,0.0,0.0,0.0,0.0,0.0,0.0,0.0,0.0,-0.074,0.051,-9.589,0.0,0.0,0.0,0.0,0.0,0.0,0.0,0.0,0.0
1581113229314138581,228,1581113229314032077,,0.864777952968,-0.00315619817098,-0.498163139537,0.867069443234,0.0,0.0,0.0,0.0,0.0,0.0,0.0,0.0,0.0,0.000738,-0.001213,0.001265,0.0,0.0,0.0,0.0,0.0,0.0,0.0,0.0,0.0,-0.085,0.02,-9.582,0.0,0.0,0.0,0.0,0.0,0.0,0.0,0.0,0.0
1581113229339845332,229,1581113229339709043,,0.864782335035,-0.00316383047171,-0.49814799894,0.867078095469,0.0,0.0,0.0,0.0,0.0,0.0,0.0,0.0,0.0,-2.1e-05,-0.001024,-0.002425,0.0,0.0,0.0,0.0,0.0,0.0,0.0,0.0,0.0,-0.102,0.04,-9.584,0.0,0.0,0.0,0.0,0.0,0.0,0.0,0.0,0.0
1581113229364419899,230,1581113229364295005,,0.864786717036,-0.00317146292298,-0.498132858154,0.867086747374,0.0,0.0,0.0,0.0,0.0,0.0,0.0,0.0,0.0,0.000397,-0.001618,-0.000141,0.0,0.0,0.0,0.0,0.0,0.0,0.0,0.0,0.0,-0.075,0.018,-9.588,0.0,0.0,0.0,0.0,0.0,0.0,0.0,0.0,0.0
1581113229389291930,231,1581113229389132022,,0.86479548084,-0.00317152862198,-0.49811772456,0.867095441301,0.0,0.0,0.0,0.0,0.0,0.0,0.0,0.0,0.0,-0.001202,-0.000107,6.7e-05,0.0,0.0,0.0,0.0,0.0,0.0,0.0,0.0,0.0,-0.053,0.027,-9.611,0.0,0.0,0.0,0.0,0.0,0.0,0.0,0.0,0.0
1581113229414402846,232,1581113229414279937,,0.864808626052,-0.00317162716867,-0.498095023883,0.867108481695,0.0,0.0,0.0,0.0,0.0,0.0,0.0,0.0,0.0,-0.001239,-2.2e-05,0.000792,0.0,0.0,0.0,0.0,0.0,0.0,0.0,0.0,0.0,-0.063,0.033,-9.569,0.0,0.0,0.0,0.0,0.0,0.0,0.0,0.0,0.0
1581113229439629826,233,1581113229439502000,,0.864804244381,-0.00317159432001,-0.498102590813,0.867104134963,0.0,0.0,0.0,0.0,0.0,0.0,0.0,0.0,0.0,0.000456,0.000171,-0.000554,0.0,0.0,0.0,0.0,0.0,0.0,0.0,0.0,0.0,-0.083,0.038,-9.573,0.0,0.0,0.0,0.0,0.0,0.0,0.0,0.0,0.0
1581113229464668034,234,1581113229464504003,,0.864804244381,-0.00317159432001,-0.498102590813,0.867104134963,0.0,0.0,0.0,0.0,0.0,0.0,0.0,0.0,0.0,-8.5e-05,-0.001318,0.000413,0.0,0.0,0.0,0.0,0.0,0.0,0.0,0.0,0.0,-0.079,0.02,-9.608,0.0,0.0,0.0,0.0,0.0,0.0,0.0,0.0,0.0
1581113229489687279,235,1581113229489556074,,0.864808626052,-0.00316402734111,-0.498102598154,0.867104177249,0.0,0.0,0.0,0.0,0.0,0.0,0.0,0.0,0.0,-0.001168,-0.00049,0.002059,0.0,0.0,0.0,0.0,0.0,0.0,0.0,0.0,0.0,-0.098,0.01,-9.584,0.0,0.0,0.0,0.0,0.0,0.0,0.0,0.0,0.0
1581113229514474736,236,1581113229514343976,,0.864799862643,-0.00317156147112,-0.498110157705,0.867099788165,0.0,0.0,0.0,0.0,0.0,0.0,0.0,0.0,0.0,-0.000693,-0.000355,-0.000537,0.0,0.0,0.0,0.0,0.0,0.0,0.0,0.0,0.0,-0.09,0.025,-9.595,0.0,0.0,0.0,0.0,0.0,0.0,0.0,0.0,0.0
1581113229539452479,237,1581113229539320945,,0.864799875321,-0.00317590830214,-0.498110130009,0.867099820981,0.0,0.0,0.0,0.0,0.0,0.0,0.0,0.0,0.0,0.000458,-0.000465,-0.002222,0.0,0.0,0.0,0.0,0.0,0.0,0.0,0.0,0.0,-0.094,0.041,-9.617,0.0,0.0,0.0,0.0,0.0,0.0,0.0,0.0,0.0
1581113229564902721,238,1581113229564697027,,0.864791111648,-0.00317584273569,-0.49812526368,0.867091127187,0.0,0.0,0.0,0.0,0.0,0.0,0.0,0.0,0.0,-0.00132,-0.000316,0.000492,0.0,0.0,0.0,0.0,0.0,0.0,0.0,0.0,0.0,-0.069,0.021,-9.61,0.0,0.0,0.0,0.0,0.0,0.0,0.0,0.0,0.0
1581113229590271695,239,1581113229590105056,,0.864799875321,-0.00318350806359,-0.498102555672,0.867104125464,0.0,0.0,0.0,0.0,0.0,0.0,0.0,0.0,0.0,-0.000471,0.000244,0.001471,0.0,0.0,0.0,0.0,0.0,0.0,0.0,0.0,0.0,-0.071,0.044,-9.585,0.0,0.0,0.0,0.0,0.0,0.0,0.0,0.0,0.0
1581113229614719444,240,1581113229614592075,,0.864808626052,-0.0031792270716,-0.498087449538,0.867112786009,0.0,0.0,0.0,0.0,0.0,0.0,0.0,0.0,0.0,3.9e-05,-0.000944,-0.000563,0.0,0.0,0.0,0.0,0.0,0.0,0.0,0.0,0.0,-0.096,0.024,-9.604,0.0,0.0,0.0,0.0,0.0,0.0,0.0,0.0,0.0
1581113229640117250,241,1581113229640002965,,0.864817401876,-0.00318363934435,-0.498072287725,0.867121511995,0.0,0.0,0.0,0.0,0.0,0.0,0.0,0.0,0.0,6.5e-05,-0.000255,0.001141,0.0,0.0,0.0,0.0,0.0,0.0,0.0,0.0,0.0,-0.114,0.031,-9.575,0.0,0.0,0.0,0.0,0.0,0.0,0.0,0.0,0.0
1581113229664815232,242,1581113229664659023,,0.864808651342,-0.00318792033707,-0.498087393974,0.867112851649,0.0,0.0,0.0,0.0,0.0,0.0,0.0,0.0,0.0,0.000623,9.2e-05,-0.000442,0.0,0.0,0.0,0.0,0.0,0.0,0.0,0.0,0.0,-0.085,0.031,-9.591,0.0,0.0,0.0,0.0,0.0,0.0,0.0,0.0,0.0
1581113229691353889,243,1581113229691150903,,0.864799887933,-0.00318785482828,-0.498102527872,0.867104158252,0.0,0.0,0.0,0.0,0.0,0.0,0.0,0.0,0.0,-0.000566,-0.001664,0.002018,0.0,0.0,0.0,0.0,0.0,0.0,0.0,0.0,0.0,-0.065,0.05,-9.595,0.0,0.0,0.0,0.0,0.0,0.0,0.0,0.0,0.0
1581113229715475607,244,1581113229715327024,,0.864804257058,-0.003175941085,-0.498102563117,0.867104167779,0.0,0.0,0.0,0.0,0.0,0.0,0.0,0.0,0.0,-0.000132,-0.000426,8e-06,0.0,0.0,0.0,0.0,0.0,0.0,0.0,0.0,0.0,-0.088,0.033,-9.592,0.0,0.0,0.0,0.0,0.0,0.0,0.0,0.0,0.0
1581113229740020366,245,1581113229739871025,,0.86480863873,-0.00316837410617,-0.498102570524,0.867104210027,0.0,0.0,0.0,0.0,0.0,0.0,0.0,0.0,0.0,-0.000633,-0.000235,-0.001252,0.0,0.0,0.0,0.0,0.0,0.0,0.0,0.0,0.0,-0.098,0.032,-9.582,0.0,0.0,0.0,0.0,0.0,0.0,0.0,0.0,0.0
1581113229764833873,246,1581113229764699935,,0.864813020336,-0.00316840685086,-0.498095003593,0.867108556759,0.0,0.0,0.0,0.0,0.0,0.0,0.0,0.0,0.0,0.000837,-0.000488,-5.6e-05,0.0,0.0,0.0,0.0,0.0,0.0,0.0,0.0,0.0,-0.091,0.028,-9.621,0.0,0.0,0.0,0.0,0.0,0.0,0.0,0.0,0.0
1581113229790474017,247,1581113229790338993,,0.86482178335,-0.00316847233952,-0.498079869618,0.867117250025,0.0,0.0,0.0,0.0,0.0,0.0,0.0,0.0,0.0,-0.000753,0.000182,2.7e-05,0.0,0.0,0.0,0.0,0.0,0.0,0.0,0.0,0.0,-0.085,0.044,-9.621,0.0,0.0,0.0,0.0,0.0,0.0,0.0,0.0,0.0
1581113229814853643,248,1581113229814718961,,0.864826164758,-0.00317610499569,-0.498064728086,0.867125900778,0.0,0.0,0.0,0.0,0.0,0.0,0.0,0.0,0.0,0.000197,0.000401,0.001186,0.0,0.0,0.0,0.0,0.0,0.0,0.0,0.0,0.0,-0.074,0.003,-9.605,0.0,0.0,0.0,0.0,0.0,0.0,0.0,0.0,0.0
1581113229840767646,249,1581113229840610980,,0.8648305461,-0.00318373780237,-0.498049586366,0.8671345512,0.0,0.0,0.0,0.0,0.0,0.0,0.0,0.0,0.0,-0.000541,-0.000357,0.00073,0.0,0.0,0.0,0.0,0.0,0.0,0.0,0.0,0.0,-0.082,0.027,-9.605,0.0,0.0,0.0,0.0,0.0,0.0,0.0,0.0,0.0
1581113229864630741,250,1581113229864501953,,0.864834927377,-0.00318377062123,-0.498042019171,0.86713889747,0.0,0.0,0.0,0.0,0.0,0.0,0.0,0.0,0.0,0.001223,0.001234,-0.00043,0.0,0.0,0.0,0.0,0.0,0.0,0.0,0.0,0.0,-0.106,0.026,-9.606,0.0,0.0,0.0,0.0,0.0,0.0,0.0,0.0,0.0
1581113229890580578,251,1581113229890443086,,0.864839308587,-0.00319140361585,-0.498026877187,0.86714754743,0.0,0.0,0.0,0.0,0.0,0.0,0.0,0.0,0.0,-0.000349,-0.000188,0.00214,0.0,0.0,0.0,0.0,0.0,0.0,0.0,0.0,0.0,-0.081,0.034,-9.617,0.0,0.0,0.0,0.0,0.0,0.0,0.0,0.0,0.0
1581113229914566736,252,1581113229914432048,,0.864843689732,-0.00317623611989,-0.498034459379,0.867143285988,0.0,0.0,0.0,0.0,0.0,0.0,0.0,0.0,0.0,0.000225,-1.2e-05,0.000283,0.0,0.0,0.0,0.0,0.0,0.0,0.0,0.0,0.0,-0.101,0.021,-9.57,0.0,0.0,0.0,0.0,0.0,0.0,0.0,0.0,0.0
1581113229940483951,253,1581113229940349102,,0.8648393212,-0.0031729496165,-0.498049573542,0.867134668474,0.0,0.0,0.0,0.0,0.0,0.0,0.0,0.0,0.0,-0.000487,0.00184,0.00099,0.0,0.0,0.0,0.0,0.0,0.0,0.0,0.0,0.0,-0.093,0.014,-9.606,0.0,0.0,0.0,0.0,0.0,0.0,0.0,0.0,0.0
1581113229965913505,254,1581113229965769052,,0.864834965016,-0.00319680932971,-0.498041935649,0.867138995629,0.0,0.0,0.0,0.0,0.0,0.0,0.0,0.0,0.0,-0.00025,-0.001051,-0.001227,0.0,0.0,0.0,0.0,0.0,0.0,0.0,0.0,0.0,-0.098,0.024,-9.573,0.0,0.0,0.0,0.0,0.0,0.0,0.0,0.0,0.0
1581113229991081637,255,1581113229990892887,,0.864843714891,-0.00320012854811,-0.498019254102,0.867151959081,0.0,0.0,0.0,0.0,0.0,0.0,0.0,0.0,0.0,-0.000248,0.000232,-0.001914,0.0,0.0,0.0,0.0,0.0,0.0,0.0,0.0,0.0,-0.064,0.043,-9.576,0.0,0.0,0.0,0.0,0.0,0.0,0.0,0.0,0.0
1581113230014744546,256,1581113230014611959,,0.86484809597,-0.00319256115268,-0.498019261712,0.867152001386,0.0,0.0,0.0,0.0,0.0,0.0,0.0,0.0,0.0,0.000598,-0.000421,0.001759,0.0,0.0,0.0,0.0,0.0,0.0,0.0,0.0,0.0,-0.074,0.029,-9.591,0.0,0.0,0.0,0.0,0.0,0.0,0.0,0.0,0.0
1581113230040491316,257,1581113230040355920,,0.864856870411,-0.00318937237673,-0.498011674123,0.867156422245,0.0,0.0,0.0,0.0,0.0,0.0,0.0,0.0,0.0,-7.2e-05,7.5e-05,0.001216,0.0,0.0,0.0,0.0,0.0,0.0,0.0,0.0,0.0,-0.085,0.049,-9.576,0.0,0.0,0.0,0.0,0.0,0.0,0.0,0.0,0.0
1581113230065485393,258,1581113230065351963,,0.864856870411,-0.00318177239903,-0.498019249072,0.867152118375,0.0,0.0,0.0,0.0,0.0,0.0,0.0,0.0,0.0,0.000862,-0.000479,0.001705,0.0,0.0,0.0,0.0,0.0,0.0,0.0,0.0,0.0,-0.07,0.017,-9.594,0.0,0.0,0.0,0.0,0.0,0.0,0.0,0.0,0.0
1581113230091087015,259,1581113230090923070,,0.864861251293,-0.00318180494295,-0.498011681723,0.86715646438,0.0,0.0,0.0,0.0,0.0,0.0,0.0,0.0,0.0,0.000129,-0.000873,-0.00151,0.0,0.0,0.0,0.0,0.0,0.0,0.0,0.0,0.0,-0.087,0.014,-9.6,0.0,0.0,0.0,0.0,0.0,0.0,0.0,0.0,0.0
1581113230115868133,260,1581113230115720987,,0.864870000377,-0.00318512434709,-0.497988999665,0.867169427249,0.0,0.0,0.0,0.0,0.0,0.0,0.0,0.0,0.0,-0.000649,-0.000778,-0.00029,0.0,0.0,0.0,0.0,0.0,0.0,0.0,0.0,0.0,-0.071,0.038,-9.584,0.0,0.0,0.0,0.0,0.0,0.0,0.0,0.0,0.0
1581113230140607480,261,1581113230140475034,,0.864870000377,-0.00317752419024,-0.49799657466,0.867165123615,0.0,0.0,0.0,0.0,0.0,0.0,0.0,0.0,0.0,0.000288,0.000197,8.8e-05,0.0,0.0,0.0,0.0,0.0,0.0,0.0,0.0,0.0,-0.094,0.04,-9.585,0.0,0.0,0.0,0.0,0.0,0.0,0.0,0.0,0.0
1581113230165496132,262,1581113230165359973,,0.864874381061,-0.00318515699401,-0.497981432165,0.86717377299,0.0,0.0,0.0,0.0,0.0,0.0,0.0,0.0,0.0,9.6e-05,-0.000667,0.001934,0.0,0.0,0.0,0.0,0.0,0.0,0.0,0.0,0.0,-0.092,0.013,-9.612,0.0,0.0,0.0,0.0,0.0,0.0,0.0,0.0,0.0
1581113230190485972,263,1581113230190350055,,0.86487877416,-0.00318953528232,-0.497973836812,0.867178151278,0.0,0.0,0.0,0.0,0.0,0.0,0.0,0.0,0.0,-0.000571,0.000684,0.001427,0.0,0.0,0.0,0.0,0.0,0.0,0.0,0.0,0.0,-0.081,0.05,-9.6,0.0,0.0,0.0,0.0,0.0,0.0,0.0,0.0,0.0
1581113230216523967,264,1581113230216352939,,0.864891915619,-0.00318963302277,-0.497951133971,0.867191187905,0.0,0.0,0.0,0.0,0.0,0.0,0.0,0.0,0.0,0.000636,0.001387,0.000115,0.0,0.0,0.0,0.0,0.0,0.0,0.0,0.0,0.0,-0.051,0.047,-9.591,0.0,0.0,0.0,0.0,0.0,0.0,0.0,0.0,0.0
1581113230241101427,265,1581113230240951061,,0.86490066378,-0.00317015210456,-0.497951176811,0.867191239574,0.0,0.0,0.0,0.0,0.0,0.0,0.0,0.0,0.0,-0.000212,0.000987,-0.000672,0.0,0.0,0.0,0.0,0.0,0.0,0.0,0.0,0.0,-0.092,0.034,-9.608,0.0,0.0,0.0,0.0,0.0,0.0,0.0,0.0,0.0
1581113230266121744,266,1581113230265991926,,0.864887522717,-0.00317765462573,-0.497966304584,0.867182506447,0.0,0.0,0.0,0.0,0.0,0.0,0.0,0.0,0.0,0.000556,-0.001242,0.000469,0.0,0.0,0.0,0.0,0.0,0.0,0.0,0.0,0.0,-0.077,0.03,-9.59,0.0,0.0,0.0,0.0,0.0,0.0,0.0,0.0,0.0
1581113230290552416,267,1581113230290414094,,0.864883142231,-0.00317002182269,-0.497981447193,0.867173857271,0.0,0.0,0.0,0.0,0.0,0.0,0.0,0.0,0.0,0.000896,-0.001009,0.001311,0.0,0.0,0.0,0.0,0.0,0.0,0.0,0.0,0.0,-0.097,0.028,-9.572,0.0,0.0,0.0,0.0,0.0,0.0,0.0,0.0,0.0
1581113230315528448,268,1581113230315392971,,0.86487877416,-0.00317433502548,-0.497988987011,0.867169544068,0.0,0.0,0.0,0.0,0.0,0.0,0.0,0.0,0.0,1.2e-05,-0.000175,0.000291,0.0,0.0,0.0,0.0,0.0,0.0,0.0,0.0,0.0,-0.098,0.01,-9.612,0.0,0.0,0.0,0.0,0.0,0.0,0.0,0.0,0.0
1581113230340878381,269,1581113230340745925,,0.864870037623,-0.00319056170899,-0.497996491302,0.867165221146,0.0,0.0,0.0,0.0,0.0,0.0,0.0,0.0,0.0,-0.00094,-0.000311,0.000897,0.0,0.0,0.0,0.0,0.0,0.0,0.0,0.0,0.0,-0.085,0.032,-9.615,0.0,0.0,0.0,0.0,0.0,0.0,0.0,0.0,0.0
1581113230366072762,270,1581113230365941047,,0.864870037623,-0.00319816166752,-0.497988916108,0.867169524893,0.0,0.0,0.0,0.0,0.0,0.0,0.0,0.0,0.0,0.000273,4.2e-05,-0.000525,0.0,0.0,0.0,0.0,0.0,0.0,0.0,0.0,0.0,-0.096,0.042,-9.614,0.0,0.0,0.0,0.0,0.0,0.0,0.0,0.0,0.0
1581113230391071315,271,1581113230390944004,,0.864883179477,-0.00318305894541,-0.497981364031,0.867173954686,0.0,0.0,0.0,0.0,0.0,0.0,0.0,0.0,0.0,-0.000671,0.00038,-0.000396,0.0,0.0,0.0,0.0,0.0,0.0,0.0,0.0,0.0,-0.082,0.025,-9.619,0.0,0.0,0.0,0.0,0.0,0.0,0.0,0.0,0.0
1581113230415576024,272,1581113230415420055,,0.864887559964,-0.00319069135201,-0.497966221222,0.867182603975,0.0,0.0,0.0,0.0,0.0,0.0,0.0,0.0,0.0,6.3e-05,0.001124,0.001613,0.0,0.0,0.0,0.0,0.0,0.0,0.0,0.0,0.0,-0.086,0.026,-9.624,0.0,0.0,0.0,0.0,0.0,0.0,0.0,0.0,0.0
1581113230440540818,273,1581113230440404891,,0.864878798925,-0.00318302657245,-0.497988931532,0.867169608946,0.0,0.0,0.0,0.0,0.0,0.0,0.0,0.0,0.0,-0.000163,0.00145,0.000788,0.0,0.0,0.0,0.0,0.0,0.0,0.0,0.0,0.0,-0.112,0.01,-9.599,0.0,0.0,0.0,0.0,0.0,0.0,0.0,0.0,0.0
1581113230465599032,274,1581113230465452909,,0.864874418307,-0.00319059412011,-0.497988923839,0.867169566952,0.0,0.0,0.0,0.0,0.0,0.0,0.0,0.0,0.0,-0.000676,0.00059,0.002053,0.0,0.0,0.0,0.0,0.0,0.0,0.0,0.0,0.0,-0.073,0.027,-9.616,0.0,0.0,0.0,0.0,0.0,0.0,0.0,0.0,0.0
1581113230491981093,275,1581113230490919113,,0.864870062124,-0.00319925338694,-0.497996435541,0.867165285837,0.0,0.0,0.0,0.0,0.0,0.0,0.0,0.0,0.0,0.000684,-0.001989,0.000146,0.0,0.0,0.0,0.0,0.0,0.0,0.0,0.0,0.0,-0.069,0.027,-9.599,0.0,0.0,0.0,0.0,0.0,0.0,0.0,0.0,0.0
1581113230515388979,276,1581113230515206098,,0.864870049906,-0.00318730773102,-0.498004038626,0.867160949608,0.0,0.0,0.0,0.0,0.0,0.0,0.0,0.0,0.0,0.000727,0.000221,0.000177,0.0,0.0,0.0,0.0,0.0,0.0,0.0,0.0,0.0,-0.093,0.036,-9.637,0.0,0.0,0.0,0.0,0.0,0.0,0.0,0.0,0.0
1581113230540139058,277,1581113230540036916,,0.864861300558,-0.00319918882813,-0.498011570354,0.867156594027,0.0,0.0,0.0,0.0,0.0,0.0,0.0,0.0,0.0,0.000576,-0.000677,-0.000594,0.0,0.0,0.0,0.0,0.0,0.0,0.0,0.0,0.0,-0.103,0.037,-9.625,0.0,0.0,0.0,0.0,0.0,0.0,0.0,0.0,0.0
1581113230565306076,278,1581113230565120935,,0.864852526512,-0.00319477816533,-0.498026732915,0.86714786964,0.0,0.0,0.0,0.0,0.0,0.0,0.0,0.0,0.0,0.000349,0.0006,-0.001795,0.0,0.0,0.0,0.0,0.0,0.0,0.0,0.0,0.0,-0.092,0.032,-9.613,0.0,0.0,0.0,0.0,0.0,0.0,0.0,0.0,0.0
1581113230590193645,279,1581113230590038061,,0.864856907459,-0.00319481051139,-0.498019165603,0.86715221571,0.0,0.0,0.0,0.0,0.0,0.0,0.0,0.0,0.0,0.000281,8e-06,-0.001452,0.0,0.0,0.0,0.0,0.0,0.0,0.0,0.0,0.0,-0.084,0.035,-9.595,0.0,0.0,0.0,0.0,0.0,0.0,0.0,0.0,0.0
1581113230615272959,280,1581113230615135908,,0.864843764419,-0.00320231313883,-0.498034292389,0.867143481483,0.0,0.0,0.0,0.0,0.0,0.0,0.0,0.0,0.0,0.00053,-0.00088,-0.001141,0.0,0.0,0.0,0.0,0.0,0.0,0.0,0.0,0.0,-0.106,0.025,-9.611,0.0,0.0,0.0,0.0,0.0,0.0,0.0,0.0,0.0
1581113230640286884,281,1581113230640058040,,0.864843776636,-0.00320665930781,-0.498034264424,0.867143513834,0.0,0.0,0.0,0.0,0.0,0.0,0.0,0.0,0.0,-0.000554,0.0005,-0.000335,0.0,0.0,0.0,0.0,0.0,0.0,0.0,0.0,0.0,-0.084,0.011,-9.617,0.0,0.0,0.0,0.0,0.0,0.0,0.0,0.0,0.0
1581113230668449319,282,1581113230668112993,,0.864856919677,-0.00319915654836,-0.498019137704,0.867152248023,0.0,0.0,0.0,0.0,0.0,0.0,0.0,0.0,0.0,0.000284,0.000662,-0.00138,0.0,0.0,0.0,0.0,0.0,0.0,0.0,0.0,0.0,-0.079,0.008,-9.588,0.0,0.0,0.0,0.0,0.0,0.0,0.0,0.0,0.0
1581113230690432452,283,1581113230690310955,,0.864843776636,-0.00319905970758,-0.498041839526,0.867139209616,0.0,0.0,0.0,0.0,0.0,0.0,0.0,0.0,0.0,0.000391,0.000102,0.001321,0.0,0.0,0.0,0.0,0.0,0.0,0.0,0.0,0.0,-0.091,0.019,-9.579,0.0,0.0,0.0,0.0,0.0,0.0,0.0,0.0,0.0
1581113230714985816,284,1581113230714880943,,0.864830633003,-0.0031989628646,-0.498064541007,0.867126170613,0.0,0.0,0.0,0.0,0.0,0.0,0.0,0.0,0.0,-0.001057,-0.000465,-0.000328,0.0,0.0,0.0,0.0,0.0,0.0,0.0,0.0,0.0,-0.079,0.009,-9.605,0.0,0.0,0.0,0.0,0.0,0.0,0.0,0.0,0.0
1581113230740413059,285,1581113230740299940,,0.864843788788,-0.00320340594241,-0.49804181159,0.867139241863,0.0,0.0,0.0,0.0,0.0,0.0,0.0,0.0,0.0,-0.000532,-0.000184,0.000648,0.0,0.0,0.0,0.0,0.0,0.0,0.0,0.0,0.0,-0.103,0.051,-9.591,0.0,0.0,0.0,0.0,0.0,0.0,0.0,0.0,0.0
1581113230773685804,286,1581113230773031949,,0.864865705612,-0.00320791291671,-0.498003947053,0.867161004392,0.0,0.0,0.0,0.0,0.0,0.0,0.0,0.0,0.0,5.3e-05,2.1e-05,-0.000793,0.0,0.0,0.0,0.0,0.0,0.0,0.0,0.0,0.0,-0.082,0.032,-9.596,0.0,0.0,0.0,0.0,0.0,0.0,0.0,0.0,0.0
1581113230791956410,287,1581113230791775941,,0.864870098382,-0.00321229090204,-0.497996351614,0.867165382377,0.0,0.0,0.0,0.0,0.0,0.0,0.0,0.0,0.0,-0.000527,0.00079,-0.000651,0.0,0.0,0.0,0.0,0.0,0.0,0.0,0.0,0.0,-0.094,0.031,-9.603,0.0,0.0,0.0,0.0,0.0,0.0,0.0,0.0,0.0
1581113230815299931,288,1581113230815151929,,0.864887620724,-0.00320481952092,-0.497973657129,0.867178461398,0.0,0.0,0.0,0.0,0.0,0.0,0.0,0.0,0.0,-0.000326,0.000582,0.000258,0.0,0.0,0.0,0.0,0.0,0.0,0.0,0.0,0.0,-0.093,0.043,-9.578,0.0,0.0,0.0,0.0,0.0,0.0,0.0,0.0,0.0
1581113230840059007,289,1581113230839953899,,0.864892001145,-0.00321245130422,-0.497958513912,0.867187110741,0.0,0.0,0.0,0.0,0.0,0.0,0.0,0.0,0.0,0.000222,-0.000258,7e-06,0.0,0.0,0.0,0.0,0.0,0.0,0.0,0.0,0.0,-0.075,0.026,-9.596,0.0,0.0,0.0,0.0,0.0,0.0,0.0,0.0,0.0
1581113230865526570,290,1581113230865421056,,0.86490952217,-0.00321257962156,-0.497928243068,0.867204492244,0.0,0.0,0.0,0.0,0.0,0.0,0.0,0.0,0.0,2e-05,-0.000574,0.000837,0.0,0.0,0.0,0.0,0.0,0.0,0.0,0.0,0.0,-0.105,0.039,-9.604,0.0,0.0,0.0,0.0,0.0,0.0,0.0,0.0,0.0
1581113230890459216,291,1581113230890352964,,0.864927018033,-0.00321161822555,-0.497890451732,0.867226111403,0.0,0.0,0.0,0.0,0.0,0.0,0.0,0.0,0.0,-0.001415,0.000106,0.00271,0.0,0.0,0.0,0.0,0.0,0.0,0.0,0.0,0.0,-0.084,0.029,-9.618,0.0,0.0,0.0,0.0,0.0,0.0,0.0,0.0,0.0
1581113230915172327,292,1581113230915064096,,0.864940169406,-0.00321605968292,-0.497867719588,0.867239178061,0.0,0.0,0.0,0.0,0.0,0.0,0.0,0.0,0.0,0.001041,-0.000613,0.000475,0.0,0.0,0.0,0.0,0.0,0.0,0.0,0.0,0.0,-0.101,0.038,-9.616,0.0,0.0,0.0,0.0,0.0,0.0,0.0,0.0,0.0
1581113230940033490,293,1581113230939876079,,0.864944549036,-0.00321609186364,-0.49786015148,0.867243522744,0.0,0.0,0.0,0.0,0.0,0.0,0.0,0.0,0.0,-0.0,-0.001435,0.00113,0.0,0.0,0.0,0.0,0.0,0.0,0.0,0.0,0.0,-0.093,0.041,-9.578,0.0,0.0,0.0,0.0,0.0,0.0,0.0,0.0,0.0
1581113230964898398,294,1581113230964796066,,0.864922650226,-0.00321593095757,-0.497897991643,0.867221798671,0.0,0.0,0.0,0.0,0.0,0.0,0.0,0.0,0.0,0.000427,-0.000293,-0.000446,0.0,0.0,0.0,0.0,0.0,0.0,0.0,0.0,0.0,-0.075,0.021,-9.607,0.0,0.0,0.0,0.0,0.0,0.0,0.0,0.0,0.0
1581113230990449241,295,1581113230990333080,,0.864944549036,-0.00320849152909,-0.497867727578,0.86723921997,0.0,0.0,0.0,0.0,0.0,0.0,0.0,0.0,0.0,-0.000399,7.8e-05,0.001931,0.0,0.0,0.0,0.0,0.0,0.0,0.0,0.0,0.0,-0.089,0.04,-9.626,0.0,0.0,0.0,0.0,0.0,0.0,0.0,0.0,0.0
1581113231015445869,296,1581113231015294075,,0.864957675445,-0.00321184395293,-0.497837474975,0.867256524182,0.0,0.0,0.0,0.0,0.0,0.0,0.0,0.0,0.0,-8.9e-05,0.000187,0.000567,0.0,0.0,0.0,0.0,0.0,0.0,0.0,0.0,0.0,-0.099,0.02,-9.636,0.0,0.0,0.0,0.0,0.0,0.0,0.0,0.0,0.0
1581113231040390327,297,1581113231040178060,,0.864962054812,-0.00321187619872,-0.497829906715,0.8672608686,0.0,0.0,0.0,0.0,0.0,0.0,0.0,0.0,0.0,0.000257,-0.001507,9.7e-05,0.0,0.0,0.0,0.0,0.0,0.0,0.0,0.0,0.0,-0.09,0.036,-9.584,0.0,0.0,0.0,0.0,0.0,0.0,0.0,0.0,0.0
1581113231065028229,298,1581113231064882040,,0.864975192517,-0.00321197293463,-0.497807201708,0.86727390146,0.0,0.0,0.0,0.0,0.0,0.0,0.0,0.0,0.0,0.000601,0.00021,-0.000986,0.0,0.0,0.0,0.0,0.0,0.0,0.0,0.0,0.0,-0.084,0.034,-9.592,0.0,0.0,0.0,0.0,0.0,0.0,0.0,0.0,0.0
1581113231089978650,299,1581113231089777946,,0.864992720623,-0.00321644583545,-0.497776899784,0.867291309892,0.0,0.0,0.0,0.0,0.0,0.0,0.0,0.0,0.0,-0.000479,-0.001426,0.002928,0.0,0.0,0.0,0.0,0.0,0.0,0.0,0.0,0.0,-0.086,0.01,-9.608,0.0,0.0,0.0,0.0,0.0,0.0,0.0,0.0,0.0
1581113231116110063,300,1581113231115989923,,0.864979583708,-0.00322395001184,-0.497792028774,0.867282579938,0.0,0.0,0.0,0.0,0.0,0.0,0.0,0.0,0.0,0.000915,0.000367,-0.000789,0.0,0.0,0.0,0.0,0.0,0.0,0.0,0.0,0.0,-0.079,0.049,-9.594,0.0,0.0,0.0,0.0,0.0,0.0,0.0,0.0,0.0
1581113231140481204,301,1581113231140357971,,0.864983962746,-0.00322398222802,-0.497784460286,0.86728692396,0.0,0.0,0.0,0.0,0.0,0.0,0.0,0.0,0.0,-0.000837,0.000169,-0.001515,0.0,0.0,0.0,0.0,0.0,0.0,0.0,0.0,0.0,-0.088,0.029,-9.621,0.0,0.0,0.0,0.0,0.0,0.0,0.0,0.0,0.0
1581113231171077497,302,1581113231170845031,,0.864988341717,-0.00323161530583,-0.497769315137,0.867295569763,0.0,0.0,0.0,0.0,0.0,0.0,0.0,0.0,0.0,-0.000704,-0.001885,2e-05,0.0,0.0,0.0,0.0,0.0,0.0,0.0,0.0,0.0,-0.096,0.049,-9.587,0.0,0.0,0.0,0.0,0.0,0.0,0.0,0.0,0.0
1581113231190751785,303,1581113231190618038,,0.864997087375,-0.00322733608753,-0.497754206081,0.867304225059,0.0,0.0,0.0,0.0,0.0,0.0,0.0,0.0,0.0,0.000851,0.000743,0.001266,0.0,0.0,0.0,0.0,0.0,0.0,0.0,0.0,0.0,-0.092,0.058,-9.616,0.0,0.0,0.0,0.0,0.0,0.0,0.0,0.0,0.0
1581113231215019038,304,1581113231214874029,,0.865014602076,-0.00321986420775,-0.497731507932,0.867317298016,0.0,0.0,0.0,0.0,0.0,0.0,0.0,0.0,0.0,0.000245,-0.000371,-0.000651,0.0,0.0,0.0,0.0,0.0,0.0,0.0,0.0,0.0,-0.097,0.039,-9.598,0.0,0.0,0.0,0.0,0.0,0.0,0.0,0.0,0.0
1581113231241016190,305,1581113231240884065,,0.865018968432,-0.00321555302715,-0.497723967222,0.867321609197,0.0,0.0,0.0,0.0,0.0,0.0,0.0,0.0,0.0,-0.000919,0.000533,8.5e-05,0.0,0.0,0.0,0.0,0.0,0.0,0.0,0.0,0.0,-0.071,0.019,-9.599,0.0,0.0,0.0,0.0,0.0,0.0,0.0,0.0,0.0
1581113231265556640,306,1581113231265449047,,0.865027725256,-0.00321561771905,-0.497708829528,0.867330295987,0.0,0.0,0.0,0.0,0.0,0.0,0.0,0.0,0.0,-0.000206,-0.000563,0.001532,0.0,0.0,0.0,0.0,0.0,0.0,0.0,0.0,0.0,-0.085,0.034,-9.591,0.0,0.0,0.0,0.0,0.0,0.0,0.0,0.0,0.0
1581113231290635535,307,1581113231290523052,,0.865023334657,-0.00320364069197,-0.497724003086,0.867321618908,0.0,0.0,0.0,0.0,0.0,0.0,0.0,0.0,0.0,6.7e-05,-0.001265,-0.001367,0.0,0.0,0.0,0.0,0.0,0.0,0.0,0.0,0.0,-0.084,0.034,-9.607,0.0,0.0,0.0,0.0,0.0,0.0,0.0,0.0,0.0
1581113231315378782,308,1581113231315243959,,0.865005820484,-0.00321111232819,-0.497746701519,0.867308546137,0.0,0.0,0.0,0.0,0.0,0.0,0.0,0.0,0.0,0.000103,0.000707,-0.00079,0.0,0.0,0.0,0.0,0.0,0.0,0.0,0.0,0.0,-0.081,0.02,-9.586,0.0,0.0,0.0,0.0,0.0,0.0,0.0,0.0,0.0
1581113231340063982,309,1581113231339885950,,0.865018968432,-0.00320795184474,-0.4977315439,0.867317307755,0.0,0.0,0.0,0.0,0.0,0.0,0.0,0.0,0.0,0.001466,0.000185,-0.001152,0.0,0.0,0.0,0.0,0.0,0.0,0.0,0.0,0.0,-0.08,0.026,-9.609,0.0,0.0,0.0,0.0,0.0,0.0,0.0,0.0,0.0
1581113231365396824,310,1581113231365288019,,0.865036481815,-0.00320808107694,-0.497701268512,0.867334681335,0.0,0.0,0.0,0.0,0.0,0.0,0.0,0.0,0.0,0.00014,-0.000465,0.001042,0.0,0.0,0.0,0.0,0.0,0.0,0.0,0.0,0.0,-0.085,0.044,-9.616,0.0,0.0,0.0,0.0,0.0,0.0,0.0,0.0,0.0
1581113231390509749,311,1581113231390392065,,0.865036469595,-0.00321133921306,-0.497693719726,0.867338950134,0.0,0.0,0.0,0.0,0.0,0.0,0.0,0.0,0.0,-0.000478,-0.000172,-0.00076,0.0,0.0,0.0,0.0,0.0,0.0,0.0,0.0,0.0,-0.091,0.012,-9.579,0.0,0.0,0.0,0.0,0.0,0.0,0.0,0.0,0.0
1581113231415414010,312,1581113231415294885,,0.865018956213,-0.00321120956603,-0.497723995264,0.867321576818,0.0,0.0,0.0,0.0,0.0,0.0,0.0,0.0,0.0,0.000315,-0.000611,0.000695,0.0,0.0,0.0,0.0,0.0,0.0,0.0,0.0,0.0,-0.056,0.041,-9.619,0.0,0.0,0.0,0.0,0.0,0.0,0.0,0.0,0.0
1581113231440400703,313,1581113231440253019,,0.865014553065,-0.00319488875549,-0.497739196465,0.867312866971,0.0,0.0,0.0,0.0,0.0,0.0,0.0,0.0,0.0,0.000106,0.001156,-0.000909,0.0,0.0,0.0,0.0,0.0,0.0,0.0,0.0,0.0,-0.078,0.049,-9.602,0.0,0.0,0.0,0.0,0.0,0.0,0.0,0.0,0.0
1581113231465530390,314,1581113231465392112,,0.865010174489,-0.00319485624844,-0.497746765179,0.867308523345,0.0,0.0,0.0,0.0,0.0,0.0,0.0,0.0,0.0,-7e-05,-0.00164,-0.001894,0.0,0.0,0.0,0.0,0.0,0.0,0.0,0.0,0.0,-0.113,0.028,-9.585,0.0,0.0,0.0,0.0,0.0,0.0,0.0,0.0,0.0
1581113231490369301,315,1581113231490130901,,0.865014553065,-0.00318728748771,-0.497746772833,0.867308565444,0.0,0.0,0.0,0.0,0.0,0.0,0.0,0.0,0.0,0.00155,0.00085,0.001421,0.0,0.0,0.0,0.0,0.0,0.0,0.0,0.0,0.0,-0.085,0.025,-9.587,0.0,0.0,0.0,0.0,0.0,0.0,0.0,0.0,0.0
1581113231515326996,316,1581113231515218019,,0.86502331002,-0.00318735242577,-0.497731635367,0.867317252632,0.0,0.0,0.0,0.0,0.0,0.0,0.0,0.0,0.0,-0.00014,4e-06,0.000984,0.0,0.0,0.0,0.0,0.0,0.0,0.0,0.0,0.0,-0.075,0.027,-9.588,0.0,0.0,0.0,0.0,0.0,0.0,0.0,0.0,0.0
1581113231540531795,317,1581113231540425062,,0.865032066711,-0.00318741736285,-0.497716497749,0.867325939556,0.0,0.0,0.0,0.0,0.0,0.0,0.0,0.0,0.0,0.00028,-0.001154,0.000112,0.0,0.0,0.0,0.0,0.0,0.0,0.0,0.0,0.0,-0.094,0.049,-9.574,0.0,0.0,0.0,0.0,0.0,0.0,0.0,0.0,0.0
1581113231565396170,318,1581113231565289974,,0.865045201253,-0.00317991331058,-0.497701367593,0.867334668249,0.0,0.0,0.0,0.0,0.0,0.0,0.0,0.0,0.0,0.000203,0.000308,-9.5e-05,0.0,0.0,0.0,0.0,0.0,0.0,0.0,0.0,0.0,-0.08,0.014,-9.609,0.0,0.0,0.0,0.0,0.0,0.0,0.0,0.0,0.0
1581113231590376264,319,1581113231590267896,,0.865058347555,-0.00319195516766,-0.497671056151,0.867352031176,0.0,0.0,0.0,0.0,0.0,0.0,0.0,0.0,0.0,-0.000103,0.000425,0.00036,0.0,0.0,0.0,0.0,0.0,0.0,0.0,0.0,0.0,-0.071,0.029,-9.622,0.0,0.0,0.0,0.0,0.0,0.0,0.0,0.0,0.0
1581113231614953668,320,1581113231614804983,,0.865062713055,-0.003187644635,-0.497663514894,0.867356341708,0.0,0.0,0.0,0.0,0.0,0.0,0.0,0.0,0.0,0.000337,0.000523,0.00135,0.0,0.0,0.0,0.0,0.0,0.0,0.0,0.0,0.0,-0.069,0.036,-9.578,0.0,0.0,0.0,0.0,0.0,0.0,0.0,0.0,0.0
1581113231641811775,321,1581113231641689062,,0.86507146856,-0.00317250627899,-0.497663530079,0.867356425711,0.0,0.0,0.0,0.0,0.0,0.0,0.0,0.0,0.0,-5.3e-05,-0.000792,0.000912,0.0,0.0,0.0,0.0,0.0,0.0,0.0,0.0,0.0,-0.087,0.012,-9.588,0.0,0.0,0.0,0.0,0.0,0.0,0.0,0.0,0.0
1581113231665243076,322,1581113231665091991,,0.865071480912,-0.00317684921246,-0.497663502375,0.867356458069,0.0,0.0,0.0,0.0,0.0,0.0,0.0,0.0,0.0,0.000264,0.00104,-0.000723,0.0,0.0,0.0,0.0,0.0,0.0,0.0,0.0,0.0,-0.08,0.019,-9.609,0.0,0.0,0.0,0.0,0.0,0.0,0.0,0.0,0.0
1581113231691117763,323,1581113231691016912,,0.865045213605,-0.0031766552596,-0.497708916371,0.86733039928,0.0,0.0,0.0,0.0,0.0,0.0,0.0,0.0,0.0,-0.000763,-0.001436,0.001389,0.0,0.0,0.0,0.0,0.0,0.0,0.0,0.0,0.0,-0.072,0.019,-9.595,0.0,0.0,0.0,0.0,0.0,0.0,0.0,0.0,0.0
1581113231715233118,324,1581113231715087890,,0.865049591655,-0.0031690863087,-0.497708923975,0.867330441144,0.0,0.0,0.0,0.0,0.0,0.0,0.0,0.0,0.0,0.001242,0.000196,0.000857,0.0,0.0,0.0,0.0,0.0,0.0,0.0,0.0,0.0,-0.067,0.054,-9.587,0.0,0.0,0.0,0.0,0.0,0.0,0.0,0.0,0.0
1581113231740858150,325,1581113231740753889,,0.865053957286,-0.00315717402766,-0.497708959111,0.867330450658,0.0,0.0,0.0,0.0,0.0,0.0,0.0,0.0,0.0,-0.001227,0.00046,-0.000907,0.0,0.0,0.0,0.0,0.0,0.0,0.0,0.0,0.0,-0.083,0.035,-9.578,0.0,0.0,0.0,0.0,0.0,0.0,0.0,0.0,0.0
1581113231765500938,326,1581113231765393972,,0.865049591655,-0.00316148510704,-0.497716500408,0.867326139579,0.0,0.0,0.0,0.0,0.0,0.0,0.0,0.0,0.0,9e-06,0.000845,0.000102,0.0,0.0,0.0,0.0,0.0,0.0,0.0,0.0,0.0,-0.076,0.041,-9.584,0.0,0.0,0.0,0.0,0.0,0.0,0.0,0.0,0.0
1581113231791389941,327,1581113231791265964,,0.865062713055,-0.00316484004083,-0.497686244784,0.867343438515,0.0,0.0,0.0,0.0,0.0,0.0,0.0,0.0,0.0,0.000966,0.000289,0.00132,0.0,0.0,0.0,0.0,0.0,0.0,0.0,0.0,0.0,-0.093,0.025,-9.59,0.0,0.0,0.0,0.0,0.0,0.0,0.0,0.0,0.0
1581113231815273792,328,1581113231815121889,,0.865058347555,-0.00316154960784,-0.497701362636,0.867334826238,0.0,0.0,0.0,0.0,0.0,0.0,0.0,0.0,0.0,-0.000301,0.000435,0.002183,0.0,0.0,0.0,0.0,0.0,0.0,0.0,0.0,0.0,-0.102,0.036,-9.595,0.0,0.0,0.0,0.0,0.0,0.0,0.0,0.0,0.0
1581113231841071318,329,1581113231840964078,,0.865032091349,-0.00318090180759,-0.497731595117,0.867317401288,0.0,0.0,0.0,0.0,0.0,0.0,0.0,0.0,0.0,0.00035,5.4e-05,-0.000826,0.0,0.0,0.0,0.0,0.0,0.0,0.0,0.0,0.0,-0.092,0.047,-9.558,0.0,0.0,0.0,0.0,0.0,0.0,0.0,0.0,0.0
1581113231865526662,330,1581113231865396022,,0.865036469595,-0.00318093406835,-0.497724026326,0.867321744782,0.0,0.0,0.0,0.0,0.0,0.0,0.0,0.0,0.0,0.000968,-0.001287,-0.000428,0.0,0.0,0.0,0.0,0.0,0.0,0.0,0.0,0.0,-0.062,0.049,-9.599,0.0,0.0,0.0,0.0,0.0,0.0,0.0,0.0,0.0
1581113231890911123,331,1581113231890757083,,0.865036469595,-0.00317333297047,-0.497731602788,0.867317443113,0.0,0.0,0.0,0.0,0.0,0.0,0.0,0.0,0.0,-0.000761,0.000674,-0.000868,0.0,0.0,0.0,0.0,0.0,0.0,0.0,0.0,0.0,-0.1,0.026,-9.564,0.0,0.0,0.0,0.0,0.0,0.0,0.0,0.0,0.0
1581113231915237691,332,1581113231915092945,,0.865036457309,-0.00317659060671,-0.497724054066,0.867321712488,0.0,0.0,0.0,0.0,0.0,0.0,0.0,0.0,0.0,4.9e-05,-0.000365,-0.000497,0.0,0.0,0.0,0.0,0.0,0.0,0.0,0.0,0.0,-0.114,0.023,-9.6,0.0,0.0,0.0,0.0,0.0,0.0,0.0,0.0,0.0
1581113231941478235,333,1581113231941353082,,0.865018943927,-0.00318406238671,-0.497746752681,0.867308639876,0.0,0.0,0.0,0.0,0.0,0.0,0.0,0.0,0.0,0.000286,-0.000617,-0.000273,0.0,0.0,0.0,0.0,0.0,0.0,0.0,0.0,0.0,-0.094,0.027,-9.597,0.0,0.0,0.0,0.0,0.0,0.0,0.0,0.0,0.0
1581113231966496580,334,1581113231966394901,,0.865018931575,-0.00318731995686,-0.497739204119,0.867312909071,0.0,0.0,0.0,0.0,0.0,0.0,0.0,0.0,0.0,-0.000381,0.000166,0.003102,0.0,0.0,0.0,0.0,0.0,0.0,0.0,0.0,0.0,-0.093,0.024,-9.603,0.0,0.0,0.0,0.0,0.0,0.0,0.0,0.0,0.0
1581113231991237498,335,1581113231991084098,,0.865032079063,-0.00318415948156,-0.497724046423,0.867321670559,0.0,0.0,0.0,0.0,0.0,0.0,0.0,0.0,0.0,0.000605,-0.000594,0.001347,0.0,0.0,0.0,0.0,0.0,0.0,0.0,0.0,0.0,-0.067,0.022,-9.622,0.0,0.0,0.0,0.0,0.0,0.0,0.0,0.0,0.0
1581113232015850005,336,1581113232015746116,,0.865036469595,-0.00319613649007,-0.497708873176,0.867330347723,0.0,0.0,0.0,0.0,0.0,0.0,0.0,0.0,0.0,-0.000111,-0.000302,-0.00099,0.0,0.0,0.0,0.0,0.0,0.0,0.0,0.0,0.0,-0.087,0.033,-9.613,0.0,0.0,0.0,0.0,0.0,0.0,0.0,0.0,0.0
1581113232042094414,337,1581113232041959047,,0.865036481815,-0.00320808107694,-0.497701268512,0.867334681335,0.0,0.0,0.0,0.0,0.0,0.0,0.0,0.0,0.0,-0.000137,-0.001014,-0.000353,0.0,0.0,0.0,0.0,0.0,0.0,0.0,0.0,0.0,-0.069,0.023,-9.598,0.0,0.0,0.0,0.0,0.0,0.0,0.0,0.0,0.0
1581113232066133143,338,1581113232066020965,,0.865049616161,-0.00320817799852,-0.497678561572,0.867347710827,0.0,0.0,0.0,0.0,0.0,0.0,0.0,0.0,0.0,-0.000545,0.000406,0.001123,0.0,0.0,0.0,0.0,0.0,0.0,0.0,0.0,0.0,-0.093,0.031,-9.578,0.0,0.0,0.0,0.0,0.0,0.0,0.0,0.0,0.0
1581113232091398590,339,1581113232091262102,,0.865040847776,-0.0032037701874,-0.497693727547,0.867338992225,0.0,0.0,0.0,0.0,0.0,0.0,0.0,0.0,0.0,0.001287,-0.000705,0.002546,0.0,0.0,0.0,0.0,0.0,0.0,0.0,0.0,0.0,-0.091,0.007,-9.583,0.0,0.0,0.0,0.0,0.0,0.0,0.0,0.0,0.0
1581113232115987795,340,1581113232115880012,,0.865040847776,-0.0032037701874,-0.497693727547,0.867338992225,0.0,0.0,0.0,0.0,0.0,0.0,0.0,0.0,0.0,-0.000377,-0.000449,-0.001283,0.0,0.0,0.0,0.0,0.0,0.0,0.0,0.0,0.0,-0.099,0.016,-9.593,0.0,0.0,0.0,0.0,0.0,0.0,0.0,0.0,0.0
1581113232140832909,341,1581113232140723943,,0.865040847776,-0.0032037701874,-0.497693727547,0.867338992225,0.0,0.0,0.0,0.0,0.0,0.0,0.0,0.0,0.0,-0.000972,0.001019,-0.000439,0.0,0.0,0.0,0.0,0.0,0.0,0.0,0.0,0.0,-0.111,0.042,-9.622,0.0,0.0,0.0,0.0,0.0,0.0,0.0,0.0,0.0
1581113232165907980,342,1581113232165803909,,0.865032079063,-0.00319936211084,-0.497708893331,0.867330273292,0.0,0.0,0.0,0.0,0.0,0.0,0.0,0.0,0.0,-0.00038,-0.000792,-0.000265,0.0,0.0,0.0,0.0,0.0,0.0,0.0,0.0,0.0,-0.095,0.022,-9.608,0.0,0.0,0.0,0.0,0.0,0.0,0.0,0.0,0.0
1581113232191462470,343,1581113232191348075,,0.865018943927,-0.00319926479002,-0.497731599814,0.867317243006,0.0,0.0,0.0,0.0,0.0,0.0,0.0,0.0,0.0,-0.000252,0.000439,0.001904,0.0,0.0,0.0,0.0,0.0,0.0,0.0,0.0,0.0,-0.069,0.027,-9.608,0.0,0.0,0.0,0.0,0.0,0.0,0.0,0.0,0.0
1581113232216457450,344,1581113232216331005,,0.865018943927,-0.00320686610466,-0.497724023268,0.867321544373,0.0,0.0,0.0,0.0,0.0,0.0,0.0,0.0,0.0,-0.000523,-0.001574,0.000557,0.0,0.0,0.0,0.0,0.0,0.0,0.0,0.0,0.0,-0.077,0.043,-9.562,0.0,0.0,0.0,0.0,0.0,0.0,0.0,0.0,0.0
1581113232241258035,345,1581113232241097927,,0.865001441776,-0.0032034788172,-0.497761846657,0.867299900776,0.0,0.0,0.0,0.0,0.0,0.0,0.0,0.0,0.0,0.000403,-0.000139,0.001587,0.0,0.0,0.0,0.0,0.0,0.0,0.0,0.0,0.0,-0.093,0.045,-9.597,0.0,0.0,0.0,0.0,0.0,0.0,0.0,0.0,0.0
1581113232266424418,346,1581113232266262054,,0.865005795847,-0.00319482374114,-0.497754333855,0.867304179652,0.0,0.0,0.0,0.0,0.0,0.0,0.0,0.0,0.0,0.000261,-0.000123,-0.001251,0.0,0.0,0.0,0.0,0.0,0.0,0.0,0.0,0.0,-0.1,0.017,-9.616,0.0,0.0,0.0,0.0,0.0,0.0,0.0,0.0,0.0
1581113232290936769,347,1581113232290828943,,0.864983901649,-0.00320226228047,-0.497784600485,0.867286762054,0.0,0.0,0.0,0.0,0.0,0.0,0.0,0.0,0.0,-0.001246,-0.00108,-0.000997,0.0,0.0,0.0,0.0,0.0,0.0,0.0,0.0,0.0,-0.091,0.035,-9.629,0.0,0.0,0.0,0.0,0.0,0.0,0.0,0.0,0.0
1581113232316412954,348,1581113232316303968,,0.864992659526,-0.00319472621779,-0.497777039654,0.867291148176,0.0,0.0,0.0,0.0,0.0,0.0,0.0,0.0,0.0,-0.001162,0.000216,0.00165,0.0,0.0,0.0,0.0,0.0,0.0,0.0,0.0,0.0,-0.075,0.021,-9.594,0.0,0.0,0.0,0.0,0.0,0.0,0.0,0.0,0.0
1581113232341399645,349,1581113232341289997,,0.864997050717,-0.00319910258379,-0.497769443194,0.867295524542,0.0,0.0,0.0,0.0,0.0,0.0,0.0,0.0,0.0,9e-05,0.000125,-0.00066,0.0,0.0,0.0,0.0,0.0,0.0,0.0,0.0,0.0,-0.103,0.018,-9.631,0.0,0.0,0.0,0.0,0.0,0.0,0.0,0.0,0.0
1581113232366166863,350,1581113232366044044,,0.864992659526,-0.00319472621779,-0.497777039654,0.867291148176,0.0,0.0,0.0,0.0,0.0,0.0,0.0,0.0,0.0,0.000162,-0.00062,-0.000926,0.0,0.0,0.0,0.0,0.0,0.0,0.0,0.0,0.0,-0.099,-0.001,-9.578,0.0,0.0,0.0,0.0,0.0,0.0,0.0,0.0,0.0
1581113232391395026,351,1581113232391232967,,0.864988292971,-0.00319903769959,-0.497784580281,0.867286836695,0.0,0.0,0.0,0.0,0.0,0.0,0.0,0.0,0.0,-0.001211,0.001111,0.001086,0.0,0.0,0.0,0.0,0.0,0.0,0.0,0.0,0.0,-0.082,0.019,-9.577,0.0,0.0,0.0,0.0,0.0,0.0,0.0,0.0,0.0
1581113232415893773,352,1581113232415788888,,0.86498828062,-0.00319469370952,-0.497784608179,0.867286804219,0.0,0.0,0.0,0.0,0.0,0.0,0.0,0.0,0.0,-0.000387,0.000616,0.000898,0.0,0.0,0.0,0.0,0.0,0.0,0.0,0.0,0.0,-0.087,0.045,-9.591,0.0,0.0,0.0,0.0,0.0,0.0,0.0,0.0,0.0
1581113232441486028,353,1581113232441371917,,0.864975143509,-0.00319459618325,-0.497807313523,0.867273771951,0.0,0.0,0.0,0.0,0.0,0.0,0.0,0.0,0.0,-0.00041,-7.1e-05,-0.000594,0.0,0.0,0.0,0.0,0.0,0.0,0.0,0.0,0.0,-0.078,0.014,-9.589,0.0,0.0,0.0,0.0,0.0,0.0,0.0,0.0,0.0
1581113232466520696,354,1581113232466386079,,0.864992659526,-0.00319472621779,-0.497777039654,0.867291148176,0.0,0.0,0.0,0.0,0.0,0.0,0.0,0.0,0.0,-6.6e-05,-0.000426,3.1e-05,0.0,0.0,0.0,0.0,0.0,0.0,0.0,0.0,0.0,-0.095,0.009,-9.615,0.0,0.0,0.0,0.0,0.0,0.0,0.0,0.0,0.0
1581113232493824898,355,1581113232493706941,,0.864997038365,-0.00319475872582,-0.497769471092,0.867295492068,0.0,0.0,0.0,0.0,0.0,0.0,0.0,0.0,0.0,-0.000202,-0.000425,0.002053,0.0,0.0,0.0,0.0,0.0,0.0,0.0,0.0,0.0,-0.074,0.039,-9.596,0.0,0.0,0.0,0.0,0.0,0.0,0.0,0.0,0.0
1581113232516133966,356,1581113232516021013,,0.864992634626,-0.00318603836902,-0.497777095337,0.867291083028,0.0,0.0,0.0,0.0,0.0,0.0,0.0,0.0,0.0,0.000387,-9e-06,0.000929,0.0,0.0,0.0,0.0,0.0,0.0,0.0,0.0,0.0,-0.086,0.013,-9.603,0.0,0.0,0.0,0.0,0.0,0.0,0.0,0.0,0.0
1581113232540842679,357,1581113232540736913,,0.865005758398,-0.00317419117126,-0.497761993418,0.867299780286,0.0,0.0,0.0,0.0,0.0,0.0,0.0,0.0,0.0,0.000252,-1.8e-05,3.2e-05,0.0,0.0,0.0,0.0,0.0,0.0,0.0,0.0,0.0,-0.085,0.051,-9.618,0.0,0.0,0.0,0.0,0.0,0.0,0.0,0.0,0.0
1581113232566777111,358,1581113232566648960,,0.864996988302,-0.00316218060367,-0.497784734136,0.867286758093,0.0,0.0,0.0,0.0,0.0,0.0,0.0,0.0,0.0,0.001498,0.000335,0.001606,0.0,0.0,0.0,0.0,0.0,0.0,0.0,0.0,0.0,-0.081,0.038,-9.598,0.0,0.0,0.0,0.0,0.0,0.0,0.0,0.0,0.0
1581113232591464370,359,1581113232591355085,,0.865010137039,-0.00316662248591,-0.497762000836,0.867299822433,0.0,0.0,0.0,0.0,0.0,0.0,0.0,0.0,0.0,2.6e-05,-0.000169,0.000316,0.0,0.0,0.0,0.0,0.0,0.0,0.0,0.0,0.0,-0.093,0.038,-9.633,0.0,0.0,0.0,0.0,0.0,0.0,0.0,0.0,0.0
1581113232616227924,360,1581113232616080045,,0.865014515615,-0.00316665511579,-0.497754432198,0.867304166193,0.0,0.0,0.0,0.0,0.0,0.0,0.0,0.0,0.0,-5.6e-05,-0.00107,0.001241,0.0,0.0,0.0,0.0,0.0,0.0,0.0,0.0,0.0,-0.087,0.038,-9.581,0.0,0.0,0.0,0.0,0.0,0.0,0.0,0.0,0.0
1581113232641544396,361,1581113232641437053,,0.865032016645,-0.00315484063786,-0.497731760986,0.867317206533,0.0,0.0,0.0,0.0,0.0,0.0,0.0,0.0,0.0,-0.000999,-7e-05,-0.001274,0.0,0.0,0.0,0.0,0.0,0.0,0.0,0.0,0.0,-0.067,0.044,-9.615,0.0,0.0,0.0,0.0,0.0,0.0,0.0,0.0,0.0
1581113232665888073,362,1581113232665781021,,0.865032003964,-0.00315049710873,-0.497731788499,0.867317173843,0.0,0.0,0.0,0.0,0.0,0.0,0.0,0.0,0.0,-0.00132,-6.2e-05,-0.000162,0.0,0.0,0.0,0.0,0.0,0.0,0.0,0.0,0.0,-0.088,0.049,-9.617,0.0,0.0,0.0,0.0,0.0,0.0,0.0,0.0,0.0
1581113232691204962,363,1581113232691052913,,0.865032003964,-0.00315809870708,-0.497724212463,0.867321475182,0.0,0.0,0.0,0.0,0.0,0.0,0.0,0.0,0.0,-1.9e-05,0.000459,-0.000811,0.0,0.0,0.0,0.0,0.0,0.0,0.0,0.0,0.0,-0.072,0.021,-9.601,0.0,0.0,0.0,0.0,0.0,0.0,0.0,0.0,0.0
1581113232726395110,364,1581113232725713968,,0.86503204181,-0.00317112909541,-0.497724129614,0.867321573168,0.0,0.0,0.0,0.0,0.0,0.0,0.0,0.0,0.0,0.000632,-0.001207,0.000786,0.0,0.0,0.0,0.0,0.0,0.0,0.0,0.0,0.0,-0.091,0.024,-9.607,0.0,0.0,0.0,0.0,0.0,0.0,0.0,0.0,0.0
1581113232742659885,365,1581113232742451906,,0.865040798237,-0.00317119422041,-0.497708991921,0.86733025996,0.0,0.0,0.0,0.0,0.0,0.0,0.0,0.0,0.0,0.000545,0.000406,-0.002076,0.0,0.0,0.0,0.0,0.0,0.0,0.0,0.0,0.0,-0.085,0.018,-9.584,0.0,0.0,0.0,0.0,0.0,0.0,0.0,0.0,0.0
1581113232766028040,366,1581113232765916109,,0.865040810721,-0.0031755375506,-0.497708964228,0.867330292489,0.0,0.0,0.0,0.0,0.0,0.0,0.0,0.0,0.0,0.000864,-0.000472,0.001635,0.0,0.0,0.0,0.0,0.0,0.0,0.0,0.0,0.0,-0.088,0.033,-9.606,0.0,0.0,0.0,0.0,0.0,0.0,0.0,0.0,0.0
1581113232791044331,367,1581113232790896892,,0.865045176352,-0.00317122678254,-0.497701423018,0.867334603258,0.0,0.0,0.0,0.0,0.0,0.0,0.0,0.0,0.0,-0.000191,-0.000246,-0.001334,0.0,0.0,0.0,0.0,0.0,0.0,0.0,0.0,0.0,-0.078,0.031,-9.57,0.0,0.0,0.0,0.0,0.0,0.0,0.0,0.0,0.0
1581113232816445730,368,1581113232816343069,,0.865040810721,-0.00318313903513,-0.497701387777,0.867334593715,0.0,0.0,0.0,0.0,0.0,0.0,0.0,0.0,0.0,0.001204,-0.000369,0.002904,0.0,0.0,0.0,0.0,0.0,0.0,0.0,0.0,0.0,-0.087,0.031,-9.587,0.0,0.0,0.0,0.0,0.0,0.0,0.0,0.0,0.0
1581113232841129585,369,1581113232841022014,,0.865027675981,-0.00317544006089,-0.497731670711,0.867317262202,0.0,0.0,0.0,0.0,0.0,0.0,0.0,0.0,0.0,8.8e-05,0.000174,-0.001327,0.0,0.0,0.0,0.0,0.0,0.0,0.0,0.0,0.0,-0.102,0.023,-9.574,0.0,0.0,0.0,0.0,0.0,0.0,0.0,0.0,0.0
1581113232866114801,370,1581113232866009950,,0.86503643254,-0.00317550505427,-0.497716533094,0.867325949126,0.0,0.0,0.0,0.0,0.0,0.0,0.0,0.0,0.0,0.000436,-0.000782,0.00067,0.0,0.0,0.0,0.0,0.0,0.0,0.0,0.0,0.0,-0.079,0.026,-9.611,0.0,0.0,0.0,0.0,0.0,0.0,0.0,0.0,0.0
1581113232891297115,371,1581113232891119003,,0.865018931575,-0.00317971872675,-0.497746780448,0.867308607478,0.0,0.0,0.0,0.0,0.0,0.0,0.0,0.0,0.0,0.000707,7e-06,0.001463,0.0,0.0,0.0,0.0,0.0,0.0,0.0,0.0,0.0,-0.067,0.008,-9.599,0.0,0.0,0.0,0.0,0.0,0.0,0.0,0.0,0.0
1581113232916026722,372,1581113232915870904,,0.865027688398,-0.00317978358899,-0.497731642982,0.867317294666,0.0,0.0,0.0,0.0,0.0,0.0,0.0,0.0,0.0,-0.000598,-0.000736,0.001847,0.0,0.0,0.0,0.0,0.0,0.0,0.0,0.0,0.0,-0.097,0.043,-9.606,0.0,0.0,0.0,0.0,0.0,0.0,0.0,0.0,0.0
1581113232941589224,373,1581113232941482067,,0.865010162072,-0.00319051258837,-0.49774679304,0.867308490804,0.0,0.0,0.0,0.0,0.0,0.0,0.0,0.0,0.0,-0.000683,5.3e-05,-0.000269,0.0,0.0,0.0,0.0,0.0,0.0,0.0,0.0,0.0,-0.1,0.027,-9.608,0.0,0.0,0.0,0.0,0.0,0.0,0.0,0.0,0.0
1581113232976069185,374,1581113232975593090,,0.865010174489,-0.00319485624844,-0.497746765179,0.867308523345,0.0,0.0,0.0,0.0,0.0,0.0,0.0,0.0,0.0,0.00083,-0.00051,0.000145,0.0,0.0,0.0,0.0,0.0,0.0,0.0,0.0,0.0,-0.076,0.031,-9.613,0.0,0.0,0.0,0.0,0.0,0.0,0.0,0.0,0.0
1581113232993619597,375,1581113232993431091,,0.86500142949,-0.0031839329235,-0.49777702716,0.867291264708,0.0,0.0,0.0,0.0,0.0,0.0,0.0,0.0,0.0,0.00173,-0.000352,0.000208,0.0,0.0,0.0,0.0,0.0,0.0,0.0,0.0,0.0,-0.094,0.04,-9.563,0.0,0.0,0.0,0.0,0.0,0.0,0.0,0.0,0.0
1581113233016305515,376,1581113233016143083,,0.865010174489,-0.00317965386353,-0.497761917763,0.867299920026,0.0,0.0,0.0,0.0,0.0,0.0,0.0,0.0,0.0,-0.000216,-0.000252,0.001941,0.0,0.0,0.0,0.0,0.0,0.0,0.0,0.0,0.0,-0.079,0.056,-9.595,0.0,0.0,0.0,0.0,0.0,0.0,0.0,0.0,0.0
1581113233040922076,377,1581113233040815114,,0.865014553065,-0.00317208517814,-0.497761925342,0.867299961993,0.0,0.0,0.0,0.0,0.0,0.0,0.0,0.0,0.0,0.000905,-0.000287,-0.000516,0.0,0.0,0.0,0.0,0.0,0.0,0.0,0.0,0.0,-0.071,0.041,-9.6,0.0,0.0,0.0,0.0,0.0,0.0,0.0,0.0,0.0
1581113233066073296,378,1581113233065967082,,0.865027688398,-0.00315698012463,-0.497754371745,0.867304389489,0.0,0.0,0.0,0.0,0.0,0.0,0.0,0.0,0.0,0.001405,-4.2e-05,0.001918,0.0,0.0,0.0,0.0,0.0,0.0,0.0,0.0,0.0,-0.091,0.052,-9.58,0.0,0.0,0.0,0.0,0.0,0.0,0.0,0.0,0.0
1581113233091453302,379,1581113233091345071,,0.86502331002,-0.00315694780662,-0.497761940385,0.86730004573,0.0,0.0,0.0,0.0,0.0,0.0,0.0,0.0,0.0,0.000985,-0.000414,0.001844,0.0,0.0,0.0,0.0,0.0,0.0,0.0,0.0,0.0,-0.07,0.022,-9.585,0.0,0.0,0.0,0.0,0.0,0.0,0.0,0.0,0.0
1581113233116450868,380,1581113233116342067,,0.865032054293,-0.003152668782,-0.497746830599,0.867308700832,0.0,0.0,0.0,0.0,0.0,0.0,0.0,0.0,0.0,0.000351,-0.000304,-0.000434,0.0,0.0,0.0,0.0,0.0,0.0,0.0,0.0,0.0,-0.08,0.029,-9.607,0.0,0.0,0.0,0.0,0.0,0.0,0.0,0.0,0.0
1581113233141817406,381,1581113233141695976,,0.865040823138,-0.0031494759601,-0.497739241816,0.867313118579,0.0,0.0,0.0,0.0,0.0,0.0,0.0,0.0,0.0,0.00082,0.000804,-0.000114,0.0,0.0,0.0,0.0,0.0,0.0,0.0,0.0,0.0,-0.065,0.052,-9.609,0.0,0.0,0.0,0.0,0.0,0.0,0.0,0.0,0.0
1581113233165966601,382,1581113233165815114,,0.865032066711,-0.00314941140061,-0.49775437921,0.867304431259,0.0,0.0,0.0,0.0,0.0,0.0,0.0,0.0,0.0,0.001247,-0.000741,-0.000597,0.0,0.0,0.0,0.0,0.0,0.0,0.0,0.0,0.0,-0.085,0.022,-9.585,0.0,0.0,0.0,0.0,0.0,0.0,0.0,0.0,0.0
1581113233191291529,383,1581113233191128015,,0.865045201253,-0.00314950823949,-0.497731673062,0.86731746214,0.0,0.0,0.0,0.0,0.0,0.0,0.0,0.0,0.0,-0.000181,-0.001184,0.000499,0.0,0.0,0.0,0.0,0.0,0.0,0.0,0.0,0.0,-0.093,0.022,-9.589,0.0,0.0,0.0,0.0,0.0,0.0,0.0,0.0,0.0
1581113233216366834,384,1581113233216250896,,0.865058322785,-0.00313766048743,-0.497716570266,0.867326158495,0.0,0.0,0.0,0.0,0.0,0.0,0.0,0.0,0.0,-0.001292,0.000411,0.00265,0.0,0.0,0.0,0.0,0.0,0.0,0.0,0.0,0.0,-0.108,0.049,-9.565,0.0,0.0,0.0,0.0,0.0,0.0,0.0,0.0,0.0
1581113233241818385,385,1581113233241662025,,0.865058335203,-0.00313440276663,-0.497724119083,0.867321888977,0.0,0.0,0.0,0.0,0.0,0.0,0.0,0.0,0.0,-0.000252,0.000974,-0.001497,0.0,0.0,0.0,0.0,0.0,0.0,0.0,0.0,0.0,-0.078,0.033,-9.622,0.0,0.0,0.0,0.0,0.0,0.0,0.0,0.0,0.0
1581113233266355169,386,1581113233266208887,,0.865071480912,-0.00313884263927,-0.497701385105,0.867334951236,0.0,0.0,0.0,0.0,0.0,0.0,0.0,0.0,0.0,-0.000267,0.000621,0.000939,0.0,0.0,0.0,0.0,0.0,0.0,0.0,0.0,0.0,-0.095,0.002,-9.597,0.0,0.0,0.0,0.0,0.0,0.0,0.0,0.0,0.0
1581113233291361868,387,1581113233291225910,,0.865071480912,-0.00312364053725,-0.497716537672,0.867326347577,0.0,0.0,0.0,0.0,0.0,0.0,0.0,0.0,0.0,0.000163,-0.000794,-0.00158,0.0,0.0,0.0,0.0,0.0,0.0,0.0,0.0,0.0,-0.084,0.009,-9.592,0.0,0.0,0.0,0.0,0.0,0.0,0.0,0.0,0.0
1581113233315983986,388,1581113233315876960,,0.865071493199,-0.00313558488053,-0.497708934082,0.867330681539,0.0,0.0,0.0,0.0,0.0,0.0,0.0,0.0,0.0,0.000476,-0.000172,8.3e-05,0.0,0.0,0.0,0.0,0.0,0.0,0.0,0.0,0.0,-0.057,0.011,-9.589,0.0,0.0,0.0,0.0,0.0,0.0,0.0,0.0,0.0
1581113233341487435,389,1581113233341367006,,0.865075870853,-0.00313561691315,-0.497701365175,0.867335024835,0.0,0.0,0.0,0.0,0.0,0.0,0.0,0.0,0.0,-0.000716,-0.001202,0.002023,0.0,0.0,0.0,0.0,0.0,0.0,0.0,0.0,0.0,-0.092,0.034,-9.594,0.0,0.0,0.0,0.0,0.0,0.0,0.0,0.0,0.0
1581113233366395796,390,1581113233366271018,,0.865062725407,-0.00313117735254,-0.497724099126,0.867321962681,0.0,0.0,0.0,0.0,0.0,0.0,0.0,0.0,0.0,-0.000565,-0.000958,-0.002381,0.0,0.0,0.0,0.0,0.0,0.0,0.0,0.0,0.0,-0.089,0.037,-9.62,0.0,0.0,0.0,0.0,0.0,0.0,0.0,0.0,0.0
1581113233391589030,391,1581113233391458034,,0.865067115479,-0.00314315383256,-0.497708926602,0.867330640043,0.0,0.0,0.0,0.0,0.0,0.0,0.0,0.0,0.0,0.000821,-0.00163,-0.001015,0.0,0.0,0.0,0.0,0.0,0.0,0.0,0.0,0.0,-0.104,0.006,-9.608,0.0,0.0,0.0,0.0,0.0,0.0,0.0,0.0,0.0
1581113233416314780,392,1581113233416191101,,0.865062749914,-0.00315506611392,-0.497708891569,0.867330630556,0.0,0.0,0.0,0.0,0.0,0.0,0.0,0.0,0.0,-0.000386,-0.000217,-0.000571,0.0,0.0,0.0,0.0,0.0,0.0,0.0,0.0,0.0,-0.092,0.031,-9.593,0.0,0.0,0.0,0.0,0.0,0.0,0.0,0.0,0.0
1581113233441208992,393,1581113233440995931,,0.865058372062,-0.00317023613483,-0.49770130738,0.867334890607,0.0,0.0,0.0,0.0,0.0,0.0,0.0,0.0,0.0,-0.000564,-0.000539,0.000474,0.0,0.0,0.0,0.0,0.0,0.0,0.0,0.0,0.0,-0.106,0.038,-9.603,0.0,0.0,0.0,0.0,0.0,0.0,0.0,0.0,0.0
1581113233466313030,394,1581113233466188907,,0.865054006299,-0.00317454734584,-0.497708848602,0.867330579396,0.0,0.0,0.0,0.0,0.0,0.0,0.0,0.0,0.0,0.000139,0.000444,0.000546,0.0,0.0,0.0,0.0,0.0,0.0,0.0,0.0,0.0,-0.053,0.029,-9.614,0.0,0.0,0.0,0.0,0.0,0.0,0.0,0.0,0.0
1581113233492022993,395,1581113233491889953,,0.865040872151,-0.00317445118801,-0.497731555093,0.867317549111,0.0,0.0,0.0,0.0,0.0,0.0,0.0,0.0,0.0,0.000958,-5.3e-05,-0.000785,0.0,0.0,0.0,0.0,0.0,0.0,0.0,0.0,0.0,-0.091,0.024,-9.609,0.0,0.0,0.0,0.0,0.0,0.0,0.0,0.0,0.0
1581113233516198631,396,1581113233516064882,,0.86506278618,-0.00316809610114,-0.497708808799,0.867330726387,0.0,0.0,0.0,0.0,0.0,0.0,0.0,0.0,0.0,0.000297,9.3e-05,0.000446,0.0,0.0,0.0,0.0,0.0,0.0,0.0,0.0,0.0,-0.06,0.023,-9.59,0.0,0.0,0.0,0.0,0.0,0.0,0.0,0.0,0.0
1581113233541309061,397,1581113233541201114,,0.86507591934,-0.00315298996626,-0.497701255418,0.867335152437,0.0,0.0,0.0,0.0,0.0,0.0,0.0,0.0,0.0,-0.000392,0.001009,0.000206,0.0,0.0,0.0,0.0,0.0,0.0,0.0,0.0,0.0,-0.072,0.032,-9.619,0.0,0.0,0.0,0.0,0.0,0.0,0.0,0.0,0.0
1581113233565860967,398,1581113233565757036,,0.86507591934,-0.00314538924584,-0.497708832033,0.867330850419,0.0,0.0,0.0,0.0,0.0,0.0,0.0,0.0,0.0,-0.000256,-0.000408,-0.001336,0.0,0.0,0.0,0.0,0.0,0.0,0.0,0.0,0.0,-0.099,0.046,-9.611,0.0,0.0,0.0,0.0,0.0,0.0,0.0,0.0,0.0
1581113233591449153,399,1581113233591339111,,0.865075907317,-0.0031410459168,-0.497708859463,0.867330818656,0.0,0.0,0.0,0.0,0.0,0.0,0.0,0.0,0.0,-0.00112,-0.00079,-6.3e-05,0.0,0.0,0.0,0.0,0.0,0.0,0.0,0.0,0.0,-0.067,0.024,-9.594,0.0,0.0,0.0,0.0,0.0,0.0,0.0,0.0,0.0
1581113233616218958,400,1581113233616080999,,0.865080284905,-0.00314107771337,-0.497701290555,0.867335161952,0.0,0.0,0.0,0.0,0.0,0.0,0.0,0.0,0.0,8.8e-05,4e-05,-0.002083,0.0,0.0,0.0,0.0,0.0,0.0,0.0,0.0,0.0,-0.079,0.02,-9.581,0.0,0.0,0.0,0.0,0.0,0.0,0.0,0.0,0.0
1581113233642701056,401,1581113233642597913,,0.865080296928,-0.00313782029359,-0.497708839702,0.867330891631,0.0,0.0,0.0,0.0,0.0,0.0,0.0,0.0,0.0,-2.2e-05,-0.000208,0.000298,0.0,0.0,0.0,0.0,0.0,0.0,0.0,0.0,0.0,-0.092,0.033,-9.602,0.0,0.0,0.0,0.0,0.0,0.0,0.0,0.0,0.0
1581113233666234996,402,1581113233666096925,,0.865089051907,-0.00313788367858,-0.497693701847,0.867339578157,0.0,0.0,0.0,0.0,0.0,0.0,0.0,0.0,0.0,-5.1e-05,-0.000209,0.000603,0.0,0.0,0.0,0.0,0.0,0.0,0.0,0.0,0.0,-0.079,0.028,-9.594,0.0,0.0,0.0,0.0,0.0,0.0,0.0,0.0,0.0
1581113233692036114,403,1581113233691884994,,0.865102171858,-0.00313363575542,-0.497671022144,0.867352575726,0.0,0.0,0.0,0.0,0.0,0.0,0.0,0.0,0.0,0.000656,-0.000234,-0.000924,0.0,0.0,0.0,0.0,0.0,0.0,0.0,0.0,0.0,-0.099,0.038,-9.633,0.0,0.0,0.0,0.0,0.0,0.0,0.0,0.0,0.0
1581113233716120696,404,1581113233716012954,,0.865119680235,-0.00313376278388,-0.497640745525,0.867369947193,0.0,0.0,0.0,0.0,0.0,0.0,0.0,0.0,0.0,7.2e-05,8.7e-05,0.000812,0.0,0.0,0.0,0.0,0.0,0.0,0.0,0.0,0.0,-0.099,0.036,-9.627,0.0,0.0,0.0,0.0,0.0,0.0,0.0,0.0,0.0
1581113233742386418,405,1581113233742250919,,0.865124057165,-0.0031337945404,-0.497633176275,0.867374289895,0.0,0.0,0.0,0.0,0.0,0.0,0.0,0.0,0.0,0.000997,-0.001003,-0.000513,0.0,0.0,0.0,0.0,0.0,0.0,0.0,0.0,0.0,-0.09,0.027,-9.604,0.0,0.0,0.0,0.0,0.0,0.0,0.0,0.0,0.0
1581113233766413127,406,1581113233766278028,,0.865124057165,-0.00312619349023,-0.497640753086,0.867369988378,0.0,0.0,0.0,0.0,0.0,0.0,0.0,0.0,0.0,-0.000598,0.000831,0.000329,0.0,0.0,0.0,0.0,0.0,0.0,0.0,0.0,0.0,-0.078,0.023,-9.561,0.0,0.0,0.0,0.0,0.0,0.0,0.0,0.0,0.0
1581113233792692078,407,1581113233792589902,,0.865119692259,-0.00313050457213,-0.497648294999,0.867365677296,0.0,0.0,0.0,0.0,0.0,0.0,0.0,0.0,0.0,9e-06,0.000446,0.000708,0.0,0.0,0.0,0.0,0.0,0.0,0.0,0.0,0.0,-0.08,0.017,-9.605,0.0,0.0,0.0,0.0,0.0,0.0,0.0,0.0,0.0
1581113233816026653,408,1581113233815866947,,0.865102183882,-0.00313037795852,-0.497678571469,0.867348305565,0.0,0.0,0.0,0.0,0.0,0.0,0.0,0.0,0.0,-0.000544,0.000785,-0.000383,0.0,0.0,0.0,0.0,0.0,0.0,0.0,0.0,0.0,-0.071,0.011,-9.604,0.0,0.0,0.0,0.0,0.0,0.0,0.0,0.0,0.0
1581113233841852748,409,1581113233841747999,,0.865071541686,-0.00313775690765,-0.497723977406,0.867322204841,0.0,0.0,0.0,0.0,0.0,0.0,0.0,0.0,0.0,-0.001565,-0.000655,0.000474,0.0,0.0,0.0,0.0,0.0,0.0,0.0,0.0,0.0,-0.06,0.039,-9.607,0.0,0.0,0.0,0.0,0.0,0.0,0.0,0.0,0.0
1581113233866593656,410,1581113233866450071,,0.865067163966,-0.00313772521432,-0.497731546201,0.867317861347,0.0,0.0,0.0,0.0,0.0,0.0,0.0,0.0,0.0,-0.000643,-0.000181,-4.7e-05,0.0,0.0,0.0,0.0,0.0,0.0,0.0,0.0,0.0,-0.096,0.025,-9.586,0.0,0.0,0.0,0.0,0.0,0.0,0.0,0.0,0.0
1581113233892484550,411,1581113233892374992,,0.865058420285,-0.00314960591438,-0.497739079822,0.867313508274,0.0,0.0,0.0,0.0,0.0,0.0,0.0,0.0,0.0,-0.001023,-0.000922,-0.000783,0.0,0.0,0.0,0.0,0.0,0.0,0.0,0.0,0.0,-0.094,0.024,-9.628,0.0,0.0,0.0,0.0,0.0,0.0,0.0,0.0,0.0
1581113233916236530,412,1581113233916079998,,0.865071553643,-0.00314970090993,-0.497716373437,0.867326538755,0.0,0.0,0.0,0.0,0.0,0.0,0.0,0.0,0.0,0.000165,0.000731,0.001559,0.0,0.0,0.0,0.0,0.0,0.0,0.0,0.0,0.0,-0.089,0.031,-9.552,0.0,0.0,0.0,0.0,0.0,0.0,0.0,0.0,0.0
1581113233942012113,413,1581113233941903114,,0.865058408328,-0.00314526232138,-0.497739107288,0.867313476575,0.0,0.0,0.0,0.0,0.0,0.0,0.0,0.0,0.0,0.000674,0.000437,-0.000859,0.0,0.0,0.0,0.0,0.0,0.0,0.0,0.0,0.0,-0.074,0.036,-9.632,0.0,0.0,0.0,0.0,0.0,0.0,0.0,0.0,0.0
1581113233977473187,414,1581113233977113008,,0.865062774157,-0.00313334992744,-0.497739142321,0.86731348606,0.0,0.0,0.0,0.0,0.0,0.0,0.0,0.0,0.0,-0.000341,0.000353,-0.000434,0.0,0.0,0.0,0.0,0.0,0.0,0.0,0.0,0.0,-0.084,0.042,-9.604,0.0,0.0,0.0,0.0,0.0,0.0,0.0,0.0,0.0
1581113233992694108,415,1581113233992551088,,0.865071529663,-0.00313341344644,-0.497724004769,0.867322173115,0.0,0.0,0.0,0.0,0.0,0.0,0.0,0.0,0.0,-0.000818,-0.000557,-0.000505,0.0,0.0,0.0,0.0,0.0,0.0,0.0,0.0,0.0,-0.091,0.034,-9.592,0.0,0.0,0.0,0.0,0.0,0.0,0.0,0.0,0.0
1581113234016283363,416,1581113234016144037,,0.865075883073,-0.00312475841456,-0.49771649055,0.867326452893,0.0,0.0,0.0,0.0,0.0,0.0,0.0,0.0,0.0,-0.001228,-0.000198,0.00106,0.0,0.0,0.0,0.0,0.0,0.0,0.0,0.0,0.0,-0.076,0.02,-9.606,0.0,0.0,0.0,0.0,0.0,0.0,0.0,0.0,0.0
1581113234042068932,417,1581113234041964054,,0.865071505419,-0.00311712579286,-0.49773163561,0.867317807229,0.0,0.0,0.0,0.0,0.0,0.0,0.0,0.0,0.0,0.00012,-0.000127,0.000205,0.0,0.0,0.0,0.0,0.0,0.0,0.0,0.0,0.0,-0.07,0.023,-9.597,0.0,0.0,0.0,0.0,0.0,0.0,0.0,0.0,0.0
1581113234067038786,418,1581113234066931009,,0.865067139854,-0.00312143753289,-0.497739177146,0.867313495489,0.0,0.0,0.0,0.0,0.0,0.0,0.0,0.0,0.0,0.001525,-0.000132,-0.001132,0.0,0.0,0.0,0.0,0.0,0.0,0.0,0.0,0.0,-0.073,0.034,-9.626,0.0,0.0,0.0,0.0,0.0,0.0,0.0,0.0,0.0
1581113234092076104,419,1581113234091928958,,0.865062762068,-0.00312140574489,-0.497746745865,0.867309151862,0.0,0.0,0.0,0.0,0.0,0.0,0.0,0.0,0.0,-0.000149,-0.000405,-0.001004,0.0,0.0,0.0,0.0,0.0,0.0,0.0,0.0,0.0,-0.095,0.049,-9.604,0.0,0.0,0.0,0.0,0.0,0.0,0.0,0.0,0.0
1581113234117199430,420,1581113234117085933,,0.865067139854,-0.00312903815957,-0.497731600889,0.867317797828,0.0,0.0,0.0,0.0,0.0,0.0,0.0,0.0,0.0,0.001832,9e-05,-0.000787,0.0,0.0,0.0,0.0,0.0,0.0,0.0,0.0,0.0,-0.102,0.004,-9.627,0.0,0.0,0.0,0.0,0.0,0.0,0.0,0.0,0.0
1581113234142652025,421,1581113234142371892,,0.865071517574,-0.00313667072467,-0.497716455725,0.867326443463,0.0,0.0,0.0,0.0,0.0,0.0,0.0,0.0,0.0,0.000275,-0.0011,-8e-06,0.0,0.0,0.0,0.0,0.0,0.0,0.0,0.0,0.0,-0.095,0.017,-9.624,0.0,0.0,0.0,0.0,0.0,0.0,0.0,0.0,0.0
1581113234167145629,422,1581113234167032957,,0.865058384216,-0.00314417583667,-0.497731585775,0.867317715187,0.0,0.0,0.0,0.0,0.0,0.0,0.0,0.0,0.0,0.000288,-0.001301,4.2e-05,0.0,0.0,0.0,0.0,0.0,0.0,0.0,0.0,0.0,-0.086,0.041,-9.605,0.0,0.0,0.0,0.0,0.0,0.0,0.0,0.0,0.0
1581113234192185689,423,1581113234192051887,,0.865067139854,-0.00314423963891,-0.49771644815,0.86732640211,0.0,0.0,0.0,0.0,0.0,0.0,0.0,0.0,0.0,-0.000768,-0.000588,-0.001096,0.0,0.0,0.0,0.0,0.0,0.0,0.0,0.0,0.0,-0.081,0.042,-9.626,0.0,0.0,0.0,0.0,0.0,0.0,0.0,0.0,0.0
1581113234216898671,424,1581113234216788053,,0.865080260661,-0.00313999214312,-0.497693768848,0.867339400065,0.0,0.0,0.0,0.0,0.0,0.0,0.0,0.0,0.0,-0.000702,-0.000272,0.000683,0.0,0.0,0.0,0.0,0.0,0.0,0.0,0.0,0.0,-0.096,0.023,-9.633,0.0,0.0,0.0,0.0,0.0,0.0,0.0,0.0,0.0
1581113234242599751,425,1581113234242491006,,0.865080272816,-0.00314433534047,-0.497693741427,0.867339431998,0.0,0.0,0.0,0.0,0.0,0.0,0.0,0.0,0.0,-0.000462,-4.7e-05,0.000523,0.0,0.0,0.0,0.0,0.0,0.0,0.0,0.0,0.0,-0.087,0.025,-9.612,0.0,0.0,0.0,0.0,0.0,0.0,0.0,0.0,0.0
1581113234267411243,426,1581113234267246961,,0.865089027795,-0.00314439914031,-0.497678603422,0.867348118261,0.0,0.0,0.0,0.0,0.0,0.0,0.0,0.0,0.0,0.000687,6e-06,0.002544,0.0,0.0,0.0,0.0,0.0,0.0,0.0,0.0,0.0,-0.08,0.02,-9.605,0.0,0.0,0.0,0.0,0.0,0.0,0.0,0.0,0.0
1581113234292460691,427,1581113234292350053,,0.86509778251,-0.00314446293919,-0.497663465266,0.867356804259,0.0,0.0,0.0,0.0,0.0,0.0,0.0,0.0,0.0,0.000708,0.000895,0.00088,0.0,0.0,0.0,0.0,0.0,0.0,0.0,0.0,0.0,-0.1,0.03,-9.569,0.0,0.0,0.0,0.0,0.0,0.0,0.0,0.0,0.0
1581113234317271510,428,1581113234317121028,,0.865110914089,-0.00315215986497,-0.49763318089,0.867374134042,0.0,0.0,0.0,0.0,0.0,0.0,0.0,0.0,0.0,0.000226,-0.000135,-0.000113,0.0,0.0,0.0,0.0,0.0,0.0,0.0,0.0,0.0,-0.103,0.031,-9.61,0.0,0.0,0.0,0.0,0.0,0.0,0.0,0.0,0.0
1581113234341885393,429,1581113234341778993,,0.86509338081,-0.00314334625211,-0.497663512593,0.867356698832,0.0,0.0,0.0,0.0,0.0,0.0,0.0,0.0,0.0,-0.000632,0.000906,-0.00037,0.0,0.0,0.0,0.0,0.0,0.0,0.0,0.0,0.0,-0.084,0.033,-9.563,0.0,0.0,0.0,0.0,0.0,0.0,0.0,0.0,0.0
1581113234367030729,430,1581113234366913080,,0.865093368523,-0.00313900331856,-0.497663540005,0.86735666673,0.0,0.0,0.0,0.0,0.0,0.0,0.0,0.0,0.0,-0.000717,-0.001748,-0.001353,0.0,0.0,0.0,0.0,0.0,0.0,0.0,0.0,0.0,-0.073,0.034,-9.584,0.0,0.0,0.0,0.0,0.0,0.0,0.0,0.0,0.0
1581113234392402527,431,1581113234392292976,,0.865102110753,-0.00313472478692,-0.497648429074,0.867365320297,0.0,0.0,0.0,0.0,0.0,0.0,0.0,0.0,0.0,0.000839,0.000177,8e-06,0.0,0.0,0.0,0.0,0.0,0.0,0.0,0.0,0.0,-0.09,0.048,-9.607,0.0,0.0,0.0,0.0,0.0,0.0,0.0,0.0,0.0
1581113234425230054,432,1581113234424768924,,0.86508897878,-0.00313462818334,-0.497671136475,0.867352291595,0.0,0.0,0.0,0.0,0.0,0.0,0.0,0.0,0.0,0.00039,-0.000788,-0.001418,0.0,0.0,0.0,0.0,0.0,0.0,0.0,0.0,0.0,-0.096,0.038,-9.612,0.0,0.0,0.0,0.0,0.0,0.0,0.0,0.0,0.0
1581113234445545567,433,1581113234445353031,,0.865088991133,-0.00313897118318,-0.497671109101,0.867352323763,0.0,0.0,0.0,0.0,0.0,0.0,0.0,0.0,0.0,0.001307,0.000933,0.002513,0.0,0.0,0.0,0.0,0.0,0.0,0.0,0.0,0.0,-0.071,0.012,-9.613,0.0,0.0,0.0,0.0,0.0,0.0,0.0,0.0,0.0
1581113234467275349,434,1581113234467058897,,0.86509335617,-0.00313466038477,-0.497663567379,0.867356634562,0.0,0.0,0.0,0.0,0.0,0.0,0.0,0.0,0.0,4.1e-05,-0.000191,0.00256,0.0,0.0,0.0,0.0,0.0,0.0,0.0,0.0,0.0,-0.073,0.045,-9.592,0.0,0.0,0.0,0.0,0.0,0.0,0.0,0.0,0.0
1581113234495289281,435,1581113234494093894,,0.865071493199,-0.00314318590309,-0.497701357695,0.867334983339,0.0,0.0,0.0,0.0,0.0,0.0,0.0,0.0,0.0,0.000458,-0.000575,-0.000592,0.0,0.0,0.0,0.0,0.0,0.0,0.0,0.0,0.0,-0.079,0.018,-9.592,0.0,0.0,0.0,0.0,0.0,0.0,0.0,0.0,0.0
1581113234517114164,436,1581113234517010927,,0.865080248441,-0.00314325004341,-0.497686219768,0.867343669735,0.0,0.0,0.0,0.0,0.0,0.0,0.0,0.0,0.0,-1.2e-05,0.000449,-0.000635,0.0,0.0,0.0,0.0,0.0,0.0,0.0,0.0,0.0,-0.114,0.04,-9.613,0.0,0.0,0.0,0.0,0.0,0.0,0.0,0.0,0.0
1581113234542563072,437,1581113234542452096,,0.865089003419,-0.0031509154313,-0.497663505077,0.86735665727,0.0,0.0,0.0,0.0,0.0,0.0,0.0,0.0,0.0,-0.000314,-0.001135,-0.000879,0.0,0.0,0.0,0.0,0.0,0.0,0.0,0.0,0.0,-0.066,0.024,-9.599,0.0,0.0,0.0,0.0,0.0,0.0,0.0,0.0,0.0
1581113234567126217,438,1581113234567006111,,0.865097758134,-0.00313577707267,-0.497663520072,0.867356740328,0.0,0.0,0.0,0.0,0.0,0.0,0.0,0.0,0.0,0.000358,-0.000673,0.000532,0.0,0.0,0.0,0.0,0.0,0.0,0.0,0.0,0.0,-0.084,0.04,-9.623,0.0,0.0,0.0,0.0,0.0,0.0,0.0,0.0,0.0
1581113234592065173,439,1581113234591958999,,0.865110877426,-0.00312392907777,-0.497648416485,0.867365435468,0.0,0.0,0.0,0.0,0.0,0.0,0.0,0.0,0.0,0.000293,-0.000102,0.000243,0.0,0.0,0.0,0.0,0.0,0.0,0.0,0.0,0.0,-0.094,0.033,-9.622,0.0,0.0,0.0,0.0,0.0,0.0,0.0,0.0,0.0
1581113234616989712,440,1581113234616882085,,0.865106524807,-0.0031477851938,-0.497640777627,0.867369759371,0.0,0.0,0.0,0.0,0.0,0.0,0.0,0.0,0.0,-0.000267,-0.001463,0.002432,0.0,0.0,0.0,0.0,0.0,0.0,0.0,0.0,0.0,-0.084,0.008,-9.622,0.0,0.0,0.0,0.0,0.0,0.0,0.0,0.0,0.0
1581113234642390810,441,1581113234642280101,,0.86511965599,-0.00314788120002,-0.497618069769,0.867382787279,0.0,0.0,0.0,0.0,0.0,0.0,0.0,0.0,0.0,-0.000585,-0.000548,0.00167,0.0,0.0,0.0,0.0,0.0,0.0,0.0,0.0,0.0,-0.077,0.017,-9.588,0.0,0.0,0.0,0.0,0.0,0.0,0.0,0.0,0.0
1581113234667428960,442,1581113234667267084,,0.865132786581,-0.00314797720409,-0.49759536157,0.867395814592,0.0,0.0,0.0,0.0,0.0,0.0,0.0,0.0,0.0,-0.000933,0.000119,0.002369,0.0,0.0,0.0,0.0,0.0,0.0,0.0,0.0,0.0,-0.069,0.032,-9.617,0.0,0.0,0.0,0.0,0.0,0.0,0.0,0.0,0.0
1581113234692112898,443,1581113234691957950,,0.865145928734,-0.00314481381592,-0.497580202697,0.867404572526,0.0,0.0,0.0,0.0,0.0,0.0,0.0,0.0,0.0,-0.000835,-0.000488,0.00124,0.0,0.0,0.0,0.0,0.0,0.0,0.0,0.0,0.0,-0.098,0.032,-9.607,0.0,0.0,0.0,0.0,0.0,0.0,0.0,0.0,0.0
1581113234717254518,444,1581113234717101097,,0.865137175468,-0.00314475002231,-0.497595341687,0.867395887981,0.0,0.0,0.0,0.0,0.0,0.0,0.0,0.0,0.0,-7e-06,0.0001,0.00041,0.0,0.0,0.0,0.0,0.0,0.0,0.0,0.0,0.0,-0.094,0.04,-9.604,0.0,0.0,0.0,0.0,0.0,0.0,0.0,0.0,0.0
1581113234742167359,445,1581113234742049932,,0.865145916578,-0.00314047160939,-0.497580230122,0.867404540596,0.0,0.0,0.0,0.0,0.0,0.0,0.0,0.0,0.0,-7.2e-05,-0.000454,0.001169,0.0,0.0,0.0,0.0,0.0,0.0,0.0,0.0,0.0,-0.089,0.043,-9.61,0.0,0.0,0.0,0.0,0.0,0.0,0.0,0.0,0.0
1581113234767592984,446,1581113234767461061,,0.865145916578,-0.00314047160939,-0.497580230122,0.867404540596,0.0,0.0,0.0,0.0,0.0,0.0,0.0,0.0,0.0,0.000313,0.000354,-0.001835,0.0,0.0,0.0,0.0,0.0,0.0,0.0,0.0,0.0,-0.086,0.022,-9.631,0.0,0.0,0.0,0.0,0.0,0.0,0.0,0.0,0.0
1581113234792563601,447,1581113234792416095,,0.86515466958,-0.00314053553416,-0.497565090981,0.867413224877,0.0,0.0,0.0,0.0,0.0,0.0,0.0,0.0,0.0,-0.000529,-0.000365,-0.000329,0.0,0.0,0.0,0.0,0.0,0.0,0.0,0.0,0.0,-0.089,0.058,-9.591,0.0,0.0,0.0,0.0,0.0,0.0,0.0,0.0,0.0
1581113234817319818,448,1581113234817164897,,0.865154657358,-0.0031361934595,-0.497565118368,0.867413192882,0.0,0.0,0.0,0.0,0.0,0.0,0.0,0.0,0.0,0.000957,0.000302,0.001522,0.0,0.0,0.0,0.0,0.0,0.0,0.0,0.0,0.0,-0.059,0.032,-9.577,0.0,0.0,0.0,0.0,0.0,0.0,0.0,0.0,0.0
1581113234842163934,449,1581113234841995954,,0.865172162572,-0.00312871975706,-0.497542416808,0.867426260241,0.0,0.0,0.0,0.0,0.0,0.0,0.0,0.0,0.0,-0.000438,-0.000391,0.000915,0.0,0.0,0.0,0.0,0.0,0.0,0.0,0.0,0.0,-0.1,0.037,-9.587,0.0,0.0,0.0,0.0,0.0,0.0,0.0,0.0,0.0
1581113234867143843,450,1581113234866978883,,0.865159033761,-0.00313622548758,-0.497557548741,0.867417534924,0.0,0.0,0.0,0.0,0.0,0.0,0.0,0.0,0.0,0.000278,-0.000138,0.002414,0.0,0.0,0.0,0.0,0.0,0.0,0.0,0.0,0.0,-0.09,0.036,-9.589,0.0,0.0,0.0,0.0,0.0,0.0,0.0,0.0,0.0
