%time,field.header.seq,field.header.stamp,field.header.frame_id,field.orientation.x,field.orientation.y,field.orientation.z,field.orientation.w,field.orientation_covariance0,field.orientation_covariance1,field.orientation_covariance2,field.orientation_covariance3,field.orientation_covariance4,field.orientation_covariance5,field.orientation_covariance6,field.orientation_covariance7,field.orientation_covariance8,field.angular_velocity.x,field.angular_velocity.y,field.angular_velocity.z,field.angular_velocity_covariance0,field.angular_velocity_covariance1,field.angular_velocity_covariance2,field.angular_velocity_covariance3,field.angular_velocity_covariance4,field.angular_velocity_covariance5,field.angular_velocity_covariance6,field.angular_velocity_covariance7,field.angular_velocity_covariance8,field.linear_acceleration.x,field.linear_acceleration.y,field.linear_acceleration.z,field.linear_acceleration_covariance0,field.linear_acceleration_covariance1,field.linear_acceleration_covariance2,field.linear_acceleration_covariance3,field.linear_acceleration_covariance4,field.linear_acceleration_covariance5,field.linear_acceleration_covariance6,field.linear_acceleration_covariance7,field.linear_acceleration_covariance8
1581113097550341075,1,1581113097550163030,,0.858798776986,-0.00214711877832,-0.509806855436,0.860283659649,0.0,0.0,0.0,0.0,0.0,0.0,0.0,0.0,0.0,-0.000846,-0.000353,-0.001059,0.0,0.0,0.0,0.0,0.0,0.0,0.0,0.0,0.0,-0.072,0.021,-9.594,0.0,0.0,0.0,0.0,0.0,0.0,0.0,0.0,0.0
1581113097573371916,2,1581113097573271989,,0.858798776986,-0.00215464450038,-0.509799340346,0.860288083461,0.0,0.0,0.0,0.0,0.0,0.0,0.0,0.0,0.0,-0.000524,-0.000829,0.001763,0.0,0.0,0.0,0.0,0.0,0.0,0.0,0.0,0.0,-0.05,0.013,-9.622,0.0,0.0,0.0,0.0,0.0,0.0,0.0,0.0,0.0
1581113097597972392,3,1581113097597875118,,0.858812194268,-0.00215162230669,-0.509784314331,0.860297024307,0.0,0.0,0.0,0.0,0.0,0.0,0.0,0.0,0.0,-0.000942,0.000445,0.001309,0.0,0.0,0.0,0.0,0.0,0.0,0.0,0.0,0.0,-0.049,0.022,-9.634,0.0,0.0,0.0,0.0,0.0,0.0,0.0,0.0,0.0
1581113097622951791,4,1581113097622839927,,0.858807718396,-0.00215468112513,-0.509784325408,0.860296981007,0.0,0.0,0.0,0.0,0.0,0.0,0.0,0.0,0.0,-0.001364,0.000147,-0.002034,0.0,0.0,0.0,0.0,0.0,0.0,0.0,0.0,0.0,-0.038,-0.002,-9.597,0.0,0.0,0.0,0.0,0.0,0.0,0.0,0.0,0.0
1581113097647824668,5,1581113097647672891,,0.858789840579,-0.00215905684442,-0.509814336306,0.860279203933,0.0,0.0,0.0,0.0,0.0,0.0,0.0,0.0,0.0,0.000921,-0.000453,-0.001935,0.0,0.0,0.0,0.0,0.0,0.0,0.0,0.0,0.0,-0.046,0.025,-9.6,0.0,0.0,0.0,0.0,0.0,0.0,0.0,0.0,0.0
1581113097673529520,6,1581113097673423051,,0.858780893381,-0.0021545712489,-0.509829369754,0.860270287583,0.0,0.0,0.0,0.0,0.0,0.0,0.0,0.0,0.0,-0.001097,-0.000114,-0.000516,0.0,0.0,0.0,0.0,0.0,0.0,0.0,0.0,0.0,-0.058,0.028,-9.599,0.0,0.0,0.0,0.0,0.0,0.0,0.0,0.0,0.0
1581113097697962383,7,1581113097697856903,,0.858794306183,-0.00215462618776,-0.509806847756,0.86028363459,0.0,0.0,0.0,0.0,0.0,0.0,0.0,0.0,0.0,0.000926,-2.5e-05,0.001414,0.0,0.0,0.0,0.0,0.0,0.0,0.0,0.0,0.0,-0.046,-0.011,-9.589,0.0,0.0,0.0,0.0,0.0,0.0,0.0,0.0,0.0
1581113097723177581,8,1581113097723073005,,0.858789835314,-0.00215460787497,-0.509814355127,0.860279185653,0.0,0.0,0.0,0.0,0.0,0.0,0.0,0.0,0.0,-0.001226,0.001117,0.001997,0.0,0.0,0.0,0.0,0.0,0.0,0.0,0.0,0.0,-0.043,0.005,-9.587,0.0,0.0,0.0,0.0,0.0,0.0,0.0,0.0,0.0
1581113097748066341,9,1581113097747926950,,0.858767490454,-0.00216341490245,-0.509851853722,0.860256976483,0.0,0.0,0.0,0.0,0.0,0.0,0.0,0.0,0.0,0.001101,0.000114,-0.000611,0.0,0.0,0.0,0.0,0.0,0.0,0.0,0.0,0.0,-0.077,-0.003,-9.606,0.0,0.0,0.0,0.0,0.0,0.0,0.0,0.0,0.0
1581113097772825748,10,1581113097772666931,,0.858763019193,-0.00217092207862,-0.509851845871,0.860256951436,0.0,0.0,0.0,0.0,0.0,0.0,0.0,0.0,0.0,-0.000218,-0.00104,-0.003073,0.0,0.0,0.0,0.0,0.0,0.0,0.0,0.0,0.0,-0.028,0.023,-9.607,0.0,0.0,0.0,0.0,0.0,0.0,0.0,0.0,0.0
1581113097805340507,11,1581113097804883956,,0.858758547867,-0.00217090385705,-0.509859353009,0.860252502106,0.0,0.0,0.0,0.0,0.0,0.0,0.0,0.0,0.0,-0.000393,-0.001312,-0.000815,0.0,0.0,0.0,0.0,0.0,0.0,0.0,0.0,0.0,-0.073,-0.01,-9.657,0.0,0.0,0.0,0.0,0.0,0.0,0.0,0.0,0.0
1581113097824120318,12,1581113097823853969,,0.858758542668,-0.00216645449475,-0.509859371935,0.860252483852,0.0,0.0,0.0,0.0,0.0,0.0,0.0,0.0,0.0,-0.000235,-0.000663,-0.000278,0.0,0.0,0.0,0.0,0.0,0.0,0.0,0.0,0.0,-0.063,0.027,-9.595,0.0,0.0,0.0,0.0,0.0,0.0,0.0,0.0,0.0
1581113097849157833,13,1581113097849024057,,0.858763013994,-0.00217399828367,-0.509844349794,0.860261357295,0.0,0.0,0.0,0.0,0.0,0.0,0.0,0.0,0.0,0.000318,3.3e-05,-0.001344,0.0,0.0,0.0,0.0,0.0,0.0,0.0,0.0,0.0,-0.033,0.003,-9.594,0.0,0.0,0.0,0.0,0.0,0.0,0.0,0.0,0.0
1581113097873357722,14,1581113097873245000,,0.85877196165,-0.00217095852128,-0.509836831477,0.860265849898,0.0,0.0,0.0,0.0,0.0,0.0,0.0,0.0,0.0,-0.000327,-0.000859,0.001268,0.0,0.0,0.0,0.0,0.0,0.0,0.0,0.0,0.0,-0.046,0.005,-9.598,0.0,0.0,0.0,0.0,0.0,0.0,0.0,0.0,0.0
1581113097898054261,15,1581113097897912025,,0.858758553,-0.00217535321918,-0.509859334045,0.860252520295,0.0,0.0,0.0,0.0,0.0,0.0,0.0,0.0,0.0,8.8e-05,-0.000837,0.000488,0.0,0.0,0.0,0.0,0.0,0.0,0.0,0.0,0.0,-0.047,0.011,-9.608,0.0,0.0,0.0,0.0,0.0,0.0,0.0,0.0,0.0
1581113097923664672,16,1581113097923521995,,0.858758553,-0.00217535321918,-0.509859334045,0.860252520295,0.0,0.0,0.0,0.0,0.0,0.0,0.0,0.0,0.0,-0.000187,0.000154,-0.003866,0.0,0.0,0.0,0.0,0.0,0.0,0.0,0.0,0.0,-0.056,0.015,-9.611,0.0,0.0,0.0,0.0,0.0,0.0,0.0,0.0,0.0
1581113097948632015,17,1581113097948471069,,0.85877196165,-0.00217095852128,-0.509836831477,0.860265849898,0.0,0.0,0.0,0.0,0.0,0.0,0.0,0.0,0.0,-0.000657,-0.000886,0.002194,0.0,0.0,0.0,0.0,0.0,0.0,0.0,0.0,0.0,-0.051,0.007,-9.587,0.0,0.0,0.0,0.0,0.0,0.0,0.0,0.0,0.0
1581113097974574799,18,1581113097974456071,,0.858785379978,-0.00216793666643,-0.509821805878,0.860274791295,0.0,0.0,0.0,0.0,0.0,0.0,0.0,0.0,0.0,0.000694,-0.000264,-0.000527,0.0,0.0,0.0,0.0,0.0,0.0,0.0,0.0,0.0,-0.046,0.001,-9.615,0.0,0.0,0.0,0.0,0.0,0.0,0.0,0.0,0.0
1581113097998395785,19,1581113097998270988,,0.858776437914,-0.00217542584244,-0.509829305257,0.860270317219,0.0,0.0,0.0,0.0,0.0,0.0,0.0,0.0,0.0,-0.000148,-0.001356,0.000486,0.0,0.0,0.0,0.0,0.0,0.0,0.0,0.0,0.0,-0.046,0.013,-9.626,0.0,0.0,0.0,0.0,0.0,0.0,0.0,0.0,0.0
1581113098024275835,20,1581113098024147987,,0.858776442982,-0.00217987494236,-0.509829286253,0.860270335342,0.0,0.0,0.0,0.0,0.0,0.0,0.0,0.0,0.0,0.000948,0.000756,-0.00044,0.0,0.0,0.0,0.0,0.0,0.0,0.0,0.0,0.0,-0.052,0.012,-9.613,0.0,0.0,0.0,0.0,0.0,0.0,0.0,0.0,0.0
1581113098049120132,21,1581113098048948049,,0.858780908979,-0.00217544399784,-0.509821797963,0.860274766287,0.0,0.0,0.0,0.0,0.0,0.0,0.0,0.0,0.0,-0.000587,-0.000226,-0.003076,0.0,0.0,0.0,0.0,0.0,0.0,0.0,0.0,0.0,-0.074,0.026,-9.588,0.0,0.0,0.0,0.0,0.0,0.0,0.0,0.0,0.0
1581113098074666930,22,1581113098074506998,,0.85877643278,-0.00217097674236,-0.509829324222,0.860270299031,0.0,0.0,0.0,0.0,0.0,0.0,0.0,0.0,0.0,-0.001339,-0.000751,-0.001012,0.0,0.0,0.0,0.0,0.0,0.0,0.0,0.0,0.0,-0.052,0.02,-9.6,0.0,0.0,0.0,0.0,0.0,0.0,0.0,0.0,0.0
1581113098098302349,23,1581113098098179101,,0.858736195387,-0.00218278757508,-0.509889354256,0.86023469725,0.0,0.0,0.0,0.0,0.0,0.0,0.0,0.0,0.0,0.00041,0.000612,-0.002475,0.0,0.0,0.0,0.0,0.0,0.0,0.0,0.0,0.0,-0.044,-0.008,-9.591,0.0,0.0,0.0,0.0,0.0,0.0,0.0,0.0,0.0
1581113098124793369,24,1581113098124674081,,0.858754081609,-0.0021828603563,-0.50985932609,0.860252495222,0.0,0.0,0.0,0.0,0.0,0.0,0.0,0.0,0.0,7.9e-05,-0.000797,0.000716,0.0,0.0,0.0,0.0,0.0,0.0,0.0,0.0,0.0,-0.056,0.009,-9.611,0.0,0.0,0.0,0.0,0.0,0.0,0.0,0.0,0.0
1581113098149185887,25,1581113098149010896,,0.858771966784,-0.00218293313486,-0.509829297302,0.860270292146,0.0,0.0,0.0,0.0,0.0,0.0,0.0,0.0,0.0,-0.001359,-0.000553,-0.002831,0.0,0.0,0.0,0.0,0.0,0.0,0.0,0.0,0.0,-0.06,0.028,-9.61,0.0,0.0,0.0,0.0,0.0,0.0,0.0,0.0,0.0
1581113098174112224,26,1581113098173937082,,0.858780908979,-0.00218296952315,-0.509814282675,0.860279190215,0.0,0.0,0.0,0.0,0.0,0.0,0.0,0.0,0.0,0.000688,-0.000228,0.000828,0.0,0.0,0.0,0.0,0.0,0.0,0.0,0.0,0.0,-0.043,0.018,-9.62,0.0,0.0,0.0,0.0,0.0,0.0,0.0,0.0,0.0
1581113098199381851,27,1581113098199217081,,0.858789855981,-0.00218745474856,-0.509799248824,0.860288106182,0.0,0.0,0.0,0.0,0.0,0.0,0.0,0.0,0.0,-0.000159,-0.000737,-0.002209,0.0,0.0,0.0,0.0,0.0,0.0,0.0,0.0,0.0,-0.049,0.011,-9.621,0.0,0.0,0.0,0.0,0.0,0.0,0.0,0.0,0.0
1581113098224764866,28,1581113098224594116,,0.858780914047,-0.00217989303224,-0.509821778959,0.860274784409,0.0,0.0,0.0,0.0,0.0,0.0,0.0,0.0,0.0,-0.000686,-0.00119,0.000896,0.0,0.0,0.0,0.0,0.0,0.0,0.0,0.0,0.0,-0.046,-0.003,-9.587,0.0,0.0,0.0,0.0,0.0,0.0,0.0,0.0,0.0
1581113098249662343,29,1581113098249512910,,0.858771971852,-0.0021798568523,-0.509836793509,0.86026588621,0.0,0.0,0.0,0.0,0.0,0.0,0.0,0.0,0.0,0.000335,0.000348,-0.000617,0.0,0.0,0.0,0.0,0.0,0.0,0.0,0.0,0.0,-0.06,0.02,-9.59,0.0,0.0,0.0,0.0,0.0,0.0,0.0,0.0,0.0
1581113098274368974,30,1581113098274230003,,0.858767500656,-0.00217231349566,-0.509851815885,0.860257012717,0.0,0.0,0.0,0.0,0.0,0.0,0.0,0.0,0.0,2.6e-05,-0.000499,-0.002439,0.0,0.0,0.0,0.0,0.0,0.0,0.0,0.0,0.0,-0.038,-0.001,-9.623,0.0,0.0,0.0,0.0,0.0,0.0,0.0,0.0,0.0
1581113098299104905,31,1581113098298933982,,0.858780914047,-0.00216484234475,-0.509836809433,0.860265936083,0.0,0.0,0.0,0.0,0.0,0.0,0.0,0.0,0.0,-0.001166,0.001081,0.00046,0.0,0.0,0.0,0.0,0.0,0.0,0.0,0.0,0.0,-0.027,0.01,-9.601,0.0,0.0,0.0,0.0,0.0,0.0,0.0,0.0,0.0
1581113098324101511,32,1581113098323868036,,0.858785385047,-0.00215733509073,-0.509836817337,0.860265960921,0.0,0.0,0.0,0.0,0.0,0.0,0.0,0.0,0.0,0.00011,-1.7e-05,3.7e-05,0.0,0.0,0.0,0.0,0.0,0.0,0.0,0.0,0.0,-0.058,0.006,-9.628,0.0,0.0,0.0,0.0,0.0,0.0,0.0,0.0,0.0
1581113098349725065,33,1581113098349597930,,0.858789865922,-0.00215872616746,-0.509836787603,0.860266021432,0.0,0.0,0.0,0.0,0.0,0.0,0.0,0.0,0.0,-0.002023,0.001707,-0.001312,0.0,0.0,0.0,0.0,0.0,0.0,0.0,0.0,0.0,-0.058,0.01,-9.592,0.0,0.0,0.0,0.0,0.0,0.0,0.0,0.0,0.0
1581113098374521748,34,1581113098374394893,,0.858803278332,-0.00215877957814,-0.509814265717,0.860279368633,0.0,0.0,0.0,0.0,0.0,0.0,0.0,0.0,0.0,-0.000211,-0.000234,-0.000745,0.0,0.0,0.0,0.0,0.0,0.0,0.0,0.0,0.0,-0.049,-0.016,-9.618,0.0,0.0,0.0,0.0,0.0,0.0,0.0,0.0,0.0
1581113098399782479,35,1581113098399662017,,0.858798807594,-0.00215876177474,-0.509821773051,0.860274919632,0.0,0.0,0.0,0.0,0.0,0.0,0.0,0.0,0.0,-0.000605,0.000903,-0.003437,0.0,0.0,0.0,0.0,0.0,0.0,0.0,0.0,0.0,-0.064,0.026,-9.615,0.0,0.0,0.0,0.0,0.0,0.0,0.0,0.0,0.0
1581113098424426721,36,1581113098424288034,,0.858816680212,-0.00214993544258,-0.509791781082,0.860292679508,0.0,0.0,0.0,0.0,0.0,0.0,0.0,0.0,0.0,4e-06,-0.00158,0.002136,0.0,0.0,0.0,0.0,0.0,0.0,0.0,0.0,0.0,-0.072,0.004,-9.589,0.0,0.0,0.0,0.0,0.0,0.0,0.0,0.0,0.0
1581113098448627902,37,1581113098448524951,,0.858830091445,-0.00214998924339,-0.509769258498,0.860306025531,0.0,0.0,0.0,0.0,0.0,0.0,0.0,0.0,0.0,0.001196,0.00031,3.1e-05,0.0,0.0,0.0,0.0,0.0,0.0,0.0,0.0,0.0,-0.039,0.005,-9.601,0.0,0.0,0.0,0.0,0.0,0.0,0.0,0.0,0.0
1581113098474434855,38,1581113098474319934,,0.858839026871,-0.00212299997284,-0.509776807968,0.860301632999,0.0,0.0,0.0,0.0,0.0,0.0,0.0,0.0,0.0,0.000101,-0.000598,0.002381,0.0,0.0,0.0,0.0,0.0,0.0,0.0,0.0,0.0,-0.028,0.003,-9.606,0.0,0.0,0.0,0.0,0.0,0.0,0.0,0.0,0.0
1581113098499346156,39,1581113098499222040,,0.858834561725,-0.0021349561799,-0.509776781675,0.860301626272,0.0,0.0,0.0,0.0,0.0,0.0,0.0,0.0,0.0,-0.000941,0.000428,-0.001669,0.0,0.0,0.0,0.0,0.0,0.0,0.0,0.0,0.0,-0.068,0.023,-9.604,0.0,0.0,0.0,0.0,0.0,0.0,0.0,0.0,0.0
1581113098524401095,40,1581113098524283885,,0.858847972173,-0.00212748424843,-0.509761774248,0.860310548002,0.0,0.0,0.0,0.0,0.0,0.0,0.0,0.0,0.0,0.001589,0.001245,0.000919,0.0,0.0,0.0,0.0,0.0,0.0,0.0,0.0,0.0,-0.044,0.031,-9.602,0.0,0.0,0.0,0.0,0.0,0.0,0.0,0.0,0.0
1581113098549041902,41,1581113098548877000,,0.858856912144,-0.00211999438319,-0.509754274311,0.860315020991,0.0,0.0,0.0,0.0,0.0,0.0,0.0,0.0,0.0,-0.000337,-0.001557,-0.00043,0.0,0.0,0.0,0.0,0.0,0.0,0.0,0.0,0.0,-0.04,0.006,-9.588,0.0,0.0,0.0,0.0,0.0,0.0,0.0,0.0,0.0
1581113098573939822,42,1581113098573774099,,0.858856917148,-0.00211691747286,-0.509761771171,0.860310614665,0.0,0.0,0.0,0.0,0.0,0.0,0.0,0.0,0.0,7e-06,0.000421,0.00131,0.0,0.0,0.0,0.0,0.0,0.0,0.0,0.0,0.0,-0.052,0.017,-9.581,0.0,0.0,0.0,0.0,0.0,0.0,0.0,0.0,0.0
1581113098599529116,43,1581113098599411010,,0.858847967104,-0.00210798484169,-0.509776823215,0.860301682034,0.0,0.0,0.0,0.0,0.0,0.0,0.0,0.0,0.0,-0.000679,-0.000384,0.001573,0.0,0.0,0.0,0.0,0.0,0.0,0.0,0.0,0.0,-0.047,0.006,-9.616,0.0,0.0,0.0,0.0,0.0,0.0,0.0,0.0,0.0
1581113098624547701,44,1581113098624425888,,0.858856901941,-0.00209604646526,-0.509769341523,0.860306137264,0.0,0.0,0.0,0.0,0.0,0.0,0.0,0.0,0.0,0.0006,-0.00052,0.001792,0.0,0.0,0.0,0.0,0.0,0.0,0.0,0.0,0.0,-0.075,0.003,-9.617,0.0,0.0,0.0,0.0,0.0,0.0,0.0,0.0,0.0
1581113098649670533,45,1581113098649558067,,0.858856907075,-0.0021004950419,-0.509769323212,0.860306155062,0.0,0.0,0.0,0.0,0.0,0.0,0.0,0.0,0.0,0.001885,-0.000185,-0.002305,0.0,0.0,0.0,0.0,0.0,0.0,0.0,0.0,0.0,-0.056,0.006,-9.589,0.0,0.0,0.0,0.0,0.0,0.0,0.0,0.0,0.0
1581113098674058041,46,1581113098673896074,,0.858861376963,-0.0020929874371,-0.509769330738,0.860306179416,0.0,0.0,0.0,0.0,0.0,0.0,0.0,0.0,0.0,-0.000205,-0.000712,-0.004245,0.0,0.0,0.0,0.0,0.0,0.0,0.0,0.0,0.0,-0.061,0.022,-9.6,0.0,0.0,0.0,0.0,0.0,0.0,0.0,0.0,0.0
1581113098699052592,47,1581113098698837041,,0.858839026871,-0.00210042397682,-0.509799353251,0.860288360232,0.0,0.0,0.0,0.0,0.0,0.0,0.0,0.0,0.0,0.000148,-0.000413,-0.001777,0.0,0.0,0.0,0.0,0.0,0.0,0.0,0.0,0.0,-0.028,0.021,-9.597,0.0,0.0,0.0,0.0,0.0,0.0,0.0,0.0,0.0
1581113098724081260,48,1581113098723927021,,0.858852442191,-0.0020974006901,-0.509784327552,0.860297299826,0.0,0.0,0.0,0.0,0.0,0.0,0.0,0.0,0.0,0.001125,-0.000261,0.00113,0.0,0.0,0.0,0.0,0.0,0.0,0.0,0.0,0.0,-0.055,0.008,-9.58,0.0,0.0,0.0,0.0,0.0,0.0,0.0,0.0,0.0
1581113098749228448,49,1581113098749109983,,0.858852437122,-0.00208542676651,-0.509791860814,0.860292857679,0.0,0.0,0.0,0.0,0.0,0.0,0.0,0.0,0.0,-0.000622,-0.000821,0.002123,0.0,0.0,0.0,0.0,0.0,0.0,0.0,0.0,0.0,-0.058,0.002,-9.589,0.0,0.0,0.0,0.0,0.0,0.0,0.0,0.0,0.0
1581113098774435700,50,1581113098774317979,,0.858861382032,-0.00208991078588,-0.509776827575,0.86030177275,0.0,0.0,0.0,0.0,0.0,0.0,0.0,0.0,0.0,-0.000448,-0.000559,-0.003764,0.0,0.0,0.0,0.0,0.0,0.0,0.0,0.0,0.0,-0.07,0.01,-9.639,0.0,0.0,0.0,0.0,0.0,0.0,0.0,0.0,0.0
1581113098799603167,51,1581113098799484968,,0.858861376963,-0.0020929874371,-0.509769330738,0.860306179416,0.0,0.0,0.0,0.0,0.0,0.0,0.0,0.0,0.0,-0.000428,-9.8e-05,-0.001099,0.0,0.0,0.0,0.0,0.0,0.0,0.0,0.0,0.0,-0.058,0.004,-9.565,0.0,0.0,0.0,0.0,0.0,0.0,0.0,0.0,0.0
1581113098823970806,52,1581113098823806047,,0.858874791303,-0.00208996365401,-0.509754304753,0.860315118382,0.0,0.0,0.0,0.0,0.0,0.0,0.0,0.0,0.0,0.000768,0.000244,-0.00232,0.0,0.0,0.0,0.0,0.0,0.0,0.0,0.0,0.0,-0.026,0.025,-9.606,0.0,0.0,0.0,0.0,0.0,0.0,0.0,0.0,0.0
1581113098849032686,53,1581113098848915100,,0.858888194915,-0.00207051745303,-0.509746830143,0.860319597519,0.0,0.0,0.0,0.0,0.0,0.0,0.0,0.0,0.0,-0.001687,-0.000568,-0.002767,0.0,0.0,0.0,0.0,0.0,0.0,0.0,0.0,0.0,-0.036,-0.01,-9.594,0.0,0.0,0.0,0.0,0.0,0.0,0.0,0.0,0.0
1581113098874497559,54,1581113098874327898,,0.858888194915,-0.00205546694367,-0.509761860177,0.860310748745,0.0,0.0,0.0,0.0,0.0,0.0,0.0,0.0,0.0,-0.001948,0.000566,0.001955,0.0,0.0,0.0,0.0,0.0,0.0,0.0,0.0,0.0,-0.035,0.02,-9.582,0.0,0.0,0.0,0.0,0.0,0.0,0.0,0.0,0.0
1581113098899313763,55,1581113098899183034,,0.858901603008,-0.00205551954156,-0.50973933712,0.860324093985,0.0,0.0,0.0,0.0,0.0,0.0,0.0,0.0,0.0,-0.000484,-0.000502,-0.001702,0.0,0.0,0.0,0.0,0.0,0.0,0.0,0.0,0.0,-0.047,0.019,-9.594,0.0,0.0,0.0,0.0,0.0,0.0,0.0,0.0,0.0
1581113098924460230,56,1581113098924319028,,0.858897128575,-0.00205105362861,-0.509746862763,0.860319628072,0.0,0.0,0.0,0.0,0.0,0.0,0.0,0.0,0.0,-0.001966,0.000451,-0.001354,0.0,0.0,0.0,0.0,0.0,0.0,0.0,0.0,0.0,-0.028,0.014,-9.619,0.0,0.0,0.0,0.0,0.0,0.0,0.0,0.0,0.0
1581113098949126178,57,1581113098948914051,,0.858906067107,-0.00204356346551,-0.509739362265,0.860324100419,0.0,0.0,0.0,0.0,0.0,0.0,0.0,0.0,0.0,-1.4e-05,-0.000825,-0.00223,0.0,0.0,0.0,0.0,0.0,0.0,0.0,0.0,0.0,-0.061,0.004,-9.608,0.0,0.0,0.0,0.0,0.0,0.0,0.0,0.0,0.0
1581113098973957739,58,1581113098973792076,,0.858906067107,-0.00203603818392,-0.509746877178,0.860319676005,0.0,0.0,0.0,0.0,0.0,0.0,0.0,0.0,0.0,-0.000219,-0.000353,-0.001527,0.0,0.0,0.0,0.0,0.0,0.0,0.0,0.0,0.0,-0.049,-0.005,-9.586,0.0,0.0,0.0,0.0,0.0,0.0,0.0,0.0,0.0
1581113098999396273,59,1581113098999274969,,0.858910536276,-0.00203605570427,-0.509739369453,0.860324124353,0.0,0.0,0.0,0.0,0.0,0.0,0.0,0.0,0.0,-0.000784,-0.001012,-0.002646,0.0,0.0,0.0,0.0,0.0,0.0,0.0,0.0,0.0,-0.023,0.022,-9.571,0.0,0.0,0.0,0.0,0.0,0.0,0.0,0.0,0.0
1581113099024478293,60,1581113099024307966,,0.858932881135,-0.00202861786747,-0.509709345314,0.860341940959,0.0,0.0,0.0,0.0,0.0,0.0,0.0,0.0,0.0,-0.00015,-0.000192,-0.001096,0.0,0.0,0.0,0.0,0.0,0.0,0.0,0.0,0.0,-0.051,0.027,-9.61,0.0,0.0,0.0,0.0,0.0,0.0,0.0,0.0,0.0
1581113099049711215,61,1581113099049598932,,0.858910531075,-0.00202408208051,-0.50974690201,0.86031968236,0.0,0.0,0.0,0.0,0.0,0.0,0.0,0.0,0.0,0.000322,9.5e-05,-0.001594,0.0,0.0,0.0,0.0,0.0,0.0,0.0,0.0,0.0,-0.047,0.026,-9.622,0.0,0.0,0.0,0.0,0.0,0.0,0.0,0.0,0.0
1581113099074071539,62,1581113099073916912,,0.858901582078,-0.00202267532412,-0.509754437992,0.860315174735,0.0,0.0,0.0,0.0,0.0,0.0,0.0,0.0,0.0,-0.000289,-0.000567,0.001903,0.0,0.0,0.0,0.0,0.0,0.0,0.0,0.0,0.0,-0.062,0.013,-9.598,0.0,0.0,0.0,0.0,0.0,0.0,0.0,0.0,0.0
1581113099099010215,63,1581113099098840951,,0.858874765303,-0.0020300942262,-0.509791968845,0.860292907633,0.0,0.0,0.0,0.0,0.0,0.0,0.0,0.0,0.0,0.000197,-0.00047,0.001484,0.0,0.0,0.0,0.0,0.0,0.0,0.0,0.0,0.0,-0.059,0.002,-9.6,0.0,0.0,0.0,0.0,0.0,0.0,0.0,0.0,0.0
1581113099124625939,64,1581113099124507904,,0.858892654011,-0.0020390622758,-0.509761903136,0.860310737587,0.0,0.0,0.0,0.0,0.0,0.0,0.0,0.0,0.0,0.000175,-0.000225,0.001781,0.0,0.0,0.0,0.0,0.0,0.0,0.0,0.0,0.0,-0.026,0.027,-9.608,0.0,0.0,0.0,0.0,0.0,0.0,0.0,0.0,0.0
1581113099149278442,65,1581113099149158954,,0.85891946395,-0.00201966892453,-0.509731904166,0.860328561411,0.0,0.0,0.0,0.0,0.0,0.0,0.0,0.0,0.0,0.000652,-0.001391,-0.000398,0.0,0.0,0.0,0.0,0.0,0.0,0.0,0.0,0.0,-0.068,-0.009,-9.61,0.0,0.0,0.0,0.0,0.0,0.0,0.0,0.0,0.0
1581113099174529148,66,1581113099174417972,,0.85891946395,-0.00202719437595,-0.509724389346,0.860332985682,0.0,0.0,0.0,0.0,0.0,0.0,0.0,0.0,0.0,-0.001052,-0.000488,0.000629,0.0,0.0,0.0,0.0,0.0,0.0,0.0,0.0,0.0,-0.036,0.03,-9.59,0.0,0.0,0.0,0.0,0.0,0.0,0.0,0.0,0.0
1581113099199167174,67,1581113099199012041,,0.858937334114,-0.00201529138464,-0.509701890329,0.860346336242,0.0,0.0,0.0,0.0,0.0,0.0,0.0,0.0,0.0,-0.00082,-0.00037,0.001265,0.0,0.0,0.0,0.0,0.0,0.0,0.0,0.0,0.0,-0.04,0.016,-9.588,0.0,0.0,0.0,0.0,0.0,0.0,0.0,0.0,0.0
1581113099224008393,68,1581113099223840951,,0.858937339445,-0.00201973937266,-0.509701872723,0.860346353887,0.0,0.0,0.0,0.0,0.0,0.0,0.0,0.0,0.0,0.000588,-0.000143,0.001872,0.0,0.0,0.0,0.0,0.0,0.0,0.0,0.0,0.0,-0.047,0.013,-9.616,0.0,0.0,0.0,0.0,0.0,0.0,0.0,0.0,0.0
1581113099263029358,69,1581113099262674093,,0.858946287266,-0.00202867030929,-0.50968682144,0.860355284823,0.0,0.0,0.0,0.0,0.0,0.0,0.0,0.0,0.0,0.000881,-0.000732,0.003272,0.0,0.0,0.0,0.0,0.0,0.0,0.0,0.0,0.0,-0.061,0.019,-9.592,0.0,0.0,0.0,0.0,0.0,0.0,0.0,0.0,0.0
1581113099275500074,70,1581113099275307893,,0.858941823756,-0.00203310075088,-0.509694311714,0.860350854382,0.0,0.0,0.0,0.0,0.0,0.0,0.0,0.0,0.0,0.001372,-0.001135,0.002424,0.0,0.0,0.0,0.0,0.0,0.0,0.0,0.0,0.0,-0.043,0.005,-9.592,0.0,0.0,0.0,0.0,0.0,0.0,0.0,0.0,0.0
1581113099299168166,71,1581113099299022912,,0.858928417429,-0.00204057383715,-0.509709320377,0.860341934577,0.0,0.0,0.0,0.0,0.0,0.0,0.0,0.0,0.0,-0.000717,0.000481,0.00116,0.0,0.0,0.0,0.0,0.0,0.0,0.0,0.0,0.0,-0.046,0.024,-9.627,0.0,0.0,0.0,0.0,0.0,0.0,0.0,0.0,0.0
1581113099324010249,72,1581113099323908090,,0.858915010513,-0.00204052147404,-0.509731843902,0.860328590123,0.0,0.0,0.0,0.0,0.0,0.0,0.0,0.0,0.0,0.001039,-0.000999,-0.002154,0.0,0.0,0.0,0.0,0.0,0.0,0.0,0.0,0.0,-0.044,0.01,-9.594,0.0,0.0,0.0,0.0,0.0,0.0,0.0,0.0,0.0
1581113099349001863,73,1581113099348855018,,0.858906077311,-0.00205998532316,-0.509731811399,0.860328559767,0.0,0.0,0.0,0.0,0.0,0.0,0.0,0.0,0.0,0.001972,-0.000962,-0.000137,0.0,0.0,0.0,0.0,0.0,0.0,0.0,0.0,0.0,-0.06,0.012,-9.565,0.0,0.0,0.0,0.0,0.0,0.0,0.0,0.0,0.0
1581113099374536028,74,1581113099374430894,,0.858906082315,-0.00207195881179,-0.509724278139,0.860333001468,0.0,0.0,0.0,0.0,0.0,0.0,0.0,0.0,0.0,-0.000429,-0.000601,-0.001394,0.0,0.0,0.0,0.0,0.0,0.0,0.0,0.0,0.0,-0.034,0.011,-9.618,0.0,0.0,0.0,0.0,0.0,0.0,0.0,0.0,0.0
1581113099399314346,75,1581113099399185895,,0.85890161802,-0.00208391483333,-0.509724252472,0.8603329949,0.0,0.0,0.0,0.0,0.0,0.0,0.0,0.0,0.0,-0.00024,0.000654,0.001305,0.0,0.0,0.0,0.0,0.0,0.0,0.0,0.0,0.0,-0.059,0.007,-9.636,0.0,0.0,0.0,0.0,0.0,0.0,0.0,0.0,0.0
1581113099424535003,76,1581113099424300909,,0.858910556422,-0.00208394965935,-0.509709236751,0.860341891135,0.0,0.0,0.0,0.0,0.0,0.0,0.0,0.0,0.0,-0.000112,-1.4e-05,0.000911,0.0,0.0,0.0,0.0,0.0,0.0,0.0,0.0,0.0,-0.06,0.011,-9.632,0.0,0.0,0.0,0.0,0.0,0.0,0.0,0.0,0.0
1581113099448931273,77,1581113099448826074,,0.858915025525,-0.00208396707211,-0.509701728832,0.860346339155,0.0,0.0,0.0,0.0,0.0,0.0,0.0,0.0,0.0,-0.000131,-0.000928,-0.002305,0.0,0.0,0.0,0.0,0.0,0.0,0.0,0.0,0.0,-0.057,-0.002,-9.618,0.0,0.0,0.0,0.0,0.0,0.0,0.0,0.0,0.0
1581113099485972783,78,1581113099485735893,,0.858910561295,-0.00210344839204,-0.509694187291,0.860350756418,0.0,0.0,0.0,0.0,0.0,0.0,0.0,0.0,0.0,8e-05,0.000453,-0.00038,0.0,0.0,0.0,0.0,0.0,0.0,0.0,0.0,0.0,-0.047,0.007,-9.6,0.0,0.0,0.0,0.0,0.0,0.0,0.0,0.0,0.0
1581113099499621806,79,1581113099499490022,,0.858919499435,-0.002103483241,-0.50967917126,0.860359652129,0.0,0.0,0.0,0.0,0.0,0.0,0.0,0.0,0.0,0.000879,0.000468,-0.002559,0.0,0.0,0.0,0.0,0.0,0.0,0.0,0.0,0.0,-0.079,0.012,-9.63,0.0,0.0,0.0,0.0,0.0,0.0,0.0,0.0,0.0
1581113099524425375,80,1581113099524317979,,0.858906092126,-0.00210343096731,-0.509701695249,0.860346308464,0.0,0.0,0.0,0.0,0.0,0.0,0.0,0.0,0.0,-0.000521,0.001007,0.003728,0.0,0.0,0.0,0.0,0.0,0.0,0.0,0.0,0.0,-0.073,0.02,-9.608,0.0,0.0,0.0,0.0,0.0,0.0,0.0,0.0,0.0
1581113099549335900,81,1581113099549217939,,0.858906092126,-0.00209590562703,-0.509709210876,0.860341884513,0.0,0.0,0.0,0.0,0.0,0.0,0.0,0.0,0.0,-0.000326,0.00011,-0.000673,0.0,0.0,0.0,0.0,0.0,0.0,0.0,0.0,0.0,-0.029,0.015,-9.607,0.0,0.0,0.0,0.0,0.0,0.0,0.0,0.0,0.0
1581113099573895256,82,1581113099573790073,,0.858919499435,-0.00208090710418,-0.509701718258,0.860346380471,0.0,0.0,0.0,0.0,0.0,0.0,0.0,0.0,0.0,-0.000598,-0.00039,0.00011,0.0,0.0,0.0,0.0,0.0,0.0,0.0,0.0,0.0,-0.058,-0.002,-9.576,0.0,0.0,0.0,0.0,0.0,0.0,0.0,0.0,0.0
1581113099598732448,83,1581113099598628997,,0.858910561295,-0.00208087248716,-0.509716734057,0.860337484367,0.0,0.0,0.0,0.0,0.0,0.0,0.0,0.0,0.0,4.1e-05,1.7e-05,-0.001694,0.0,0.0,0.0,0.0,0.0,0.0,0.0,0.0,0.0,-0.054,0.011,-9.59,0.0,0.0,0.0,0.0,0.0,0.0,0.0,0.0,0.0
1581113099624540274,84,1581113099624427080,,0.858906096934,-0.00210035367893,-0.509709192566,0.860341901866,0.0,0.0,0.0,0.0,0.0,0.0,0.0,0.0,0.0,-3.4e-05,4.5e-05,0.003314,0.0,0.0,0.0,0.0,0.0,0.0,0.0,0.0,0.0,-0.083,0.013,-9.615,0.0,0.0,0.0,0.0,0.0,0.0,0.0,0.0,0.0
1581113099649407854,85,1581113099649267911,,0.858906092126,-0.00210343096731,-0.509701695249,0.860346308464,0.0,0.0,0.0,0.0,0.0,0.0,0.0,0.0,0.0,-0.001671,-0.000227,-9.5e-05,0.0,0.0,0.0,0.0,0.0,0.0,0.0,0.0,0.0,-0.062,0.025,-9.615,0.0,0.0,0.0,0.0,0.0,0.0,0.0,0.0,0.0
1581113099674343141,86,1581113099674230098,,0.858923963534,-0.00209152738035,-0.50967919724,0.860359658778,0.0,0.0,0.0,0.0,0.0,0.0,0.0,0.0,0.0,0.001361,0.000122,0.000469,0.0,0.0,0.0,0.0,0.0,0.0,0.0,0.0,0.0,-0.045,0.021,-9.586,0.0,0.0,0.0,0.0,0.0,0.0,0.0,0.0,0.0
1581113099698922426,87,1581113099698812961,,0.858932896343,-0.00208711462299,-0.509664199286,0.860368536744,0.0,0.0,0.0,0.0,0.0,0.0,0.0,0.0,0.0,-0.001384,-0.00062,0.002093,0.0,0.0,0.0,0.0,0.0,0.0,0.0,0.0,0.0,-0.065,0.014,-9.615,0.0,0.0,0.0,0.0,0.0,0.0,0.0,0.0,0.0
1581113099723826571,88,1581113099723678112,,0.858941833829,-0.00208714965513,-0.509649182945,0.860377431931,0.0,0.0,0.0,0.0,0.0,0.0,0.0,0.0,0.0,-0.000508,0.000163,-0.002105,0.0,0.0,0.0,0.0,0.0,0.0,0.0,0.0,0.0,-0.049,0.0,-9.63,0.0,0.0,0.0,0.0,0.0,0.0,0.0,0.0,0.0
1581113099749408684,89,1581113099749300956,,0.858955244506,-0.00208412377988,-0.509634155817,0.860386368381,0.0,0.0,0.0,0.0,0.0,0.0,0.0,0.0,0.0,-0.000519,-0.000337,-0.001101,0.0,0.0,0.0,0.0,0.0,0.0,0.0,0.0,0.0,-0.051,0.022,-9.587,0.0,0.0,0.0,0.0,0.0,0.0,0.0,0.0,0.0
1581113099774288060,90,1581113099774175882,,0.858968649656,-0.00207665022054,-0.509619146727,0.86039528702,0.0,0.0,0.0,0.0,0.0,0.0,0.0,0.0,0.0,-0.001008,4.9e-05,-0.001963,0.0,0.0,0.0,0.0,0.0,0.0,0.0,0.0,0.0,-0.052,0.022,-9.602,0.0,0.0,0.0,0.0,0.0,0.0,0.0,0.0,0.0
1581113099798984473,91,1581113099798875093,,0.858973117909,-0.00206161616239,-0.509626670083,0.860390887478,0.0,0.0,0.0,0.0,0.0,0.0,0.0,0.0,0.0,0.000282,-0.000822,0.0011,0.0,0.0,0.0,0.0,0.0,0.0,0.0,0.0,0.0,-0.038,0.016,-9.599,0.0,0.0,0.0,0.0,0.0,0.0,0.0,0.0,0.0
1581113099824078452,92,1581113099823894023,,0.858986527147,-0.00206611518072,-0.509604126917,0.860404246439,0.0,0.0,0.0,0.0,0.0,0.0,0.0,0.0,0.0,0.000181,3.2e-05,0.001565,0.0,0.0,0.0,0.0,0.0,0.0,0.0,0.0,0.0,-0.072,-0.003,-9.575,0.0,0.0,0.0,0.0,0.0,0.0,0.0,0.0,0.0
1581113099848856195,93,1581113099848690986,,0.859008871255,-0.00207064812939,-0.509566566164,0.86042649849,0.0,0.0,0.0,0.0,0.0,0.0,0.0,0.0,0.0,-0.001018,-0.001874,-4.8e-05,0.0,0.0,0.0,0.0,0.0,0.0,0.0,0.0,0.0,-0.061,0.003,-9.62,0.0,0.0,0.0,0.0,0.0,0.0,0.0,0.0,0.0
1581113099874145105,94,1581113099873967885,,0.85902227405,-0.00207822558618,-0.509536523689,0.860444261426,0.0,0.0,0.0,0.0,0.0,0.0,0.0,0.0,0.0,-0.000105,2.4e-05,0.002013,0.0,0.0,0.0,0.0,0.0,0.0,0.0,0.0,0.0,-0.05,0.009,-9.606,0.0,0.0,0.0,0.0,0.0,0.0,0.0,0.0,0.0
1581113099899256131,95,1581113099899132966,,0.859026750938,-0.00208713574526,-0.509528978527,0.860448742208,0.0,0.0,0.0,0.0,0.0,0.0,0.0,0.0,0.0,-0.000501,0.000572,-0.001273,0.0,0.0,0.0,0.0,0.0,0.0,0.0,0.0,0.0,-0.042,0.011,-9.604,0.0,0.0,0.0,0.0,0.0,0.0,0.0,0.0,0.0
1581113099925378870,96,1581113099925271034,,0.859026750938,-0.00208713574526,-0.509528978527,0.860448742208,0.0,0.0,0.0,0.0,0.0,0.0,0.0,0.0,0.0,0.000322,-0.001517,-0.001434,0.0,0.0,0.0,0.0,0.0,0.0,0.0,0.0,0.0,-0.061,-0.001,-9.576,0.0,0.0,0.0,0.0,0.0,0.0,0.0,0.0,0.0
1581113099949259533,97,1581113099949142932,,0.859044624766,-0.00209165023826,-0.509498924656,0.860466544636,0.0,0.0,0.0,0.0,0.0,0.0,0.0,0.0,0.0,-0.000226,1.1e-05,-0.00133,0.0,0.0,0.0,0.0,0.0,0.0,0.0,0.0,0.0,-0.071,0.028,-9.587,0.0,0.0,0.0,0.0,0.0,0.0,0.0,0.0,0.0
1581113099974974798,98,1581113099974811077,,0.859053549692,-0.00208279207228,-0.509483943033,0.860475402802,0.0,0.0,0.0,0.0,0.0,0.0,0.0,0.0,0.0,-0.000399,0.000297,0.000323,0.0,0.0,0.0,0.0,0.0,0.0,0.0,0.0,0.0,-0.035,0.007,-9.616,0.0,0.0,0.0,0.0,0.0,0.0,0.0,0.0,0.0
1581113099998992597,99,1581113099998878955,,0.859071417338,-0.00208286060662,-0.509453906465,0.860493186623,0.0,0.0,0.0,0.0,0.0,0.0,0.0,0.0,0.0,-9.6e-05,-0.000876,-0.000461,0.0,0.0,0.0,0.0,0.0,0.0,0.0,0.0,0.0,-0.063,0.038,-9.587,0.0,0.0,0.0,0.0,0.0,0.0,0.0,0.0,0.0
1581113100025035364,100,1581113100024923086,,0.859084812642,-0.00207846637818,-0.509431396789,0.860506506634,0.0,0.0,0.0,0.0,0.0,0.0,0.0,0.0,0.0,0.000736,-0.000317,-0.000749,0.0,0.0,0.0,0.0,0.0,0.0,0.0,0.0,0.0,-0.062,0.009,-9.601,0.0,0.0,0.0,0.0,0.0,0.0,0.0,0.0,0.0
1581113100050468755,101,1581113100050359964,,0.859093740871,-0.00206652862364,-0.509423913098,0.860510958807,0.0,0.0,0.0,0.0,0.0,0.0,0.0,0.0,0.0,0.000169,0.00019,0.001351,0.0,0.0,0.0,0.0,0.0,0.0,0.0,0.0,0.0,-0.033,0.021,-9.629,0.0,0.0,0.0,0.0,0.0,0.0,0.0,0.0,0.0
1581113100075088762,102,1581113100074938058,,0.859089279194,-0.00207848357643,-0.509423887433,0.860510952229,0.0,0.0,0.0,0.0,0.0,0.0,0.0,0.0,0.0,0.000861,-0.000743,0.001192,0.0,0.0,0.0,0.0,0.0,0.0,0.0,0.0,0.0,-0.034,0.01,-9.61,0.0,0.0,0.0,0.0,0.0,0.0,0.0,0.0,0.0
1581113100099026334,103,1581113100098867893,,0.859080346025,-0.00207844917978,-0.509438906105,0.860502060974,0.0,0.0,0.0,0.0,0.0,0.0,0.0,0.0,0.0,-0.00021,-0.001341,0.000564,0.0,0.0,0.0,0.0,0.0,0.0,0.0,0.0,0.0,-0.07,0.007,-9.61,0.0,0.0,0.0,0.0,0.0,0.0,0.0,0.0,0.0
1581113100124939266,104,1581113100124768972,,0.859089279194,-0.00207848357643,-0.509423887433,0.860510952229,0.0,0.0,0.0,0.0,0.0,0.0,0.0,0.0,0.0,-0.000146,-0.000378,0.001517,0.0,0.0,0.0,0.0,0.0,0.0,0.0,0.0,0.0,-0.048,0.015,-9.599,0.0,0.0,0.0,0.0,0.0,0.0,0.0,0.0,0.0
1581113100149586523,105,1581113100149471998,,0.859093740871,-0.0020740552779,-0.509416396158,0.860515380528,0.0,0.0,0.0,0.0,0.0,0.0,0.0,0.0,0.0,-0.001014,0.00031,-0.001009,0.0,0.0,0.0,0.0,0.0,0.0,0.0,0.0,0.0,-0.058,0.029,-9.603,0.0,0.0,0.0,0.0,0.0,0.0,0.0,0.0,0.0
1581113100175295581,106,1581113100175153017,,0.859098212101,-0.002086044677,-0.509401351485,0.860524264785,0.0,0.0,0.0,0.0,0.0,0.0,0.0,0.0,0.0,8.1e-05,-0.00073,-0.002628,0.0,0.0,0.0,0.0,0.0,0.0,0.0,0.0,0.0,-0.052,0.02,-9.621,0.0,0.0,0.0,0.0,0.0,0.0,0.0,0.0,0.0
1581113100200151053,107,1581113100200001001,,0.85911607713,-0.00207858676255,-0.509378830487,0.860537624422,0.0,0.0,0.0,0.0,0.0,0.0,0.0,0.0,0.0,-0.000441,-0.001818,0.002322,0.0,0.0,0.0,0.0,0.0,0.0,0.0,0.0,0.0,-0.055,0.024,-9.577,0.0,0.0,0.0,0.0,0.0,0.0,0.0,0.0,0.0
1581113100225098280,108,1581113100224939107,,0.85914287271,-0.00207116292936,-0.509341289574,0.860559873217,0.0,0.0,0.0,0.0,0.0,0.0,0.0,0.0,0.0,-0.000394,0.000303,0.001831,0.0,0.0,0.0,0.0,0.0,0.0,0.0,0.0,0.0,-0.031,0.019,-9.604,0.0,0.0,0.0,0.0,0.0,0.0,0.0,0.0,0.0
1581113100249956600,109,1581113100249795913,,0.859156264808,-0.00206676975681,-0.50931877805,0.860573190256,0.0,0.0,0.0,0.0,0.0,0.0,0.0,0.0,0.0,-0.0012,-0.001392,0.000204,0.0,0.0,0.0,0.0,0.0,0.0,0.0,0.0,0.0,-0.06,0.026,-9.578,0.0,0.0,0.0,0.0,0.0,0.0,0.0,0.0,0.0
1581113100275431578,110,1581113100275316953,,0.859178586803,-0.00206241155113,-0.509281245993,0.860595395406,0.0,0.0,0.0,0.0,0.0,0.0,0.0,0.0,0.0,-0.000398,0.000499,0.001167,0.0,0.0,0.0,0.0,0.0,0.0,0.0,0.0,0.0,-0.043,0.013,-9.622,0.0,0.0,0.0,0.0,0.0,0.0,0.0,0.0,0.0
1581113100300152428,111,1581113100299998998,,0.859183051981,-0.0020624288385,-0.509273735862,0.860599839691,0.0,0.0,0.0,0.0,0.0,0.0,0.0,0.0,0.0,0.000843,8.9e-05,-0.003217,0.0,0.0,0.0,0.0,0.0,0.0,0.0,0.0,0.0,-0.047,-0.003,-9.582,0.0,0.0,0.0,0.0,0.0,0.0,0.0,0.0,0.0
1581113100325529549,112,1581113100325412988,,0.85917412156,-0.00206992167883,-0.509281238517,0.860595371558,0.0,0.0,0.0,0.0,0.0,0.0,0.0,0.0,0.0,-0.001345,-0.000884,-0.002196,0.0,0.0,0.0,0.0,0.0,0.0,0.0,0.0,0.0,-0.058,0.008,-9.609,0.0,0.0,0.0,0.0,0.0,0.0,0.0,0.0,0.0
1581113100349974990,113,1581113100349860906,,0.859160720499,-0.00207295262773,-0.509296269256,0.860586441481,0.0,0.0,0.0,0.0,0.0,0.0,0.0,0.0,0.0,0.00075,-0.000902,0.001359,0.0,0.0,0.0,0.0,0.0,0.0,0.0,0.0,0.0,-0.048,0.003,-9.629,0.0,0.0,0.0,0.0,0.0,0.0,0.0,0.0,0.0
1581113100375242902,114,1581113100375125885,,0.85917412156,-0.00207744917132,-0.509273720872,0.860599791929,0.0,0.0,0.0,0.0,0.0,0.0,0.0,0.0,0.0,0.001576,-0.000422,0.003201,0.0,0.0,0.0,0.0,0.0,0.0,0.0,0.0,0.0,-0.043,0.018,-9.591,0.0,0.0,0.0,0.0,0.0,0.0,0.0,0.0,0.0
1581113100400184451,115,1581113100400063037,,0.859178591678,-0.00208191072209,-0.509266192553,0.86060425348,0.0,0.0,0.0,0.0,0.0,0.0,0.0,0.0,0.0,0.00104,-0.00027,0.000572,0.0,0.0,0.0,0.0,0.0,0.0,0.0,0.0,0.0,-0.046,0.018,-9.642,0.0,0.0,0.0,0.0,0.0,0.0,0.0,0.0,0.0
1581113100426327293,116,1581113100426202058,,0.859178591678,-0.00208943826484,-0.509258674727,0.860608673692,0.0,0.0,0.0,0.0,0.0,0.0,0.0,0.0,0.0,-0.000294,-0.000572,-0.002349,0.0,0.0,0.0,0.0,0.0,0.0,0.0,0.0,0.0,-0.038,0.036,-9.618,0.0,0.0,0.0,0.0,0.0,0.0,0.0,0.0,0.0
1581113100450600536,117,1581113100450495004,,0.8591919772,-0.00208060242977,-0.509236180261,0.860621970952,0.0,0.0,0.0,0.0,0.0,0.0,0.0,0.0,0.0,0.000133,-0.000924,-0.002217,0.0,0.0,0.0,0.0,0.0,0.0,0.0,0.0,0.0,-0.072,0.012,-9.619,0.0,0.0,0.0,0.0,0.0,0.0,0.0,0.0,0.0
1581113100475178509,118,1581113100474993944,,0.859183047041,-0.00208809528252,-0.509243683059,0.860617502911,0.0,0.0,0.0,0.0,0.0,0.0,0.0,0.0,0.0,0.00144,-0.000209,-0.001711,0.0,0.0,0.0,0.0,0.0,0.0,0.0,0.0,0.0,-0.064,0.014,-9.605,0.0,0.0,0.0,0.0,0.0,0.0,0.0,0.0,0.0
1581113100499879103,119,1581113100499712944,,0.859196447121,-0.00208506375647,-0.509228651721,0.860626432279,0.0,0.0,0.0,0.0,0.0,0.0,0.0,0.0,0.0,0.001724,0.001028,-0.001446,0.0,0.0,0.0,0.0,0.0,0.0,0.0,0.0,0.0,-0.03,0.005,-9.595,0.0,0.0,0.0,0.0,0.0,0.0,0.0,0.0,0.0
1581113100524772615,120,1581113100524622917,,0.859209841672,-0.00208511596382,-0.5092061204,0.860639763559,0.0,0.0,0.0,0.0,0.0,0.0,0.0,0.0,0.0,-0.001439,-9e-05,0.00147,0.0,0.0,0.0,0.0,0.0,0.0,0.0,0.0,0.0,-0.045,0.003,-9.573,0.0,0.0,0.0,0.0,0.0,0.0,0.0,0.0,0.0
1581113100550281018,121,1581113100550174951,,0.859214301452,-0.00208068976973,-0.509198628058,0.860644189753,0.0,0.0,0.0,0.0,0.0,0.0,0.0,0.0,0.0,-0.000402,-0.000194,0.001653,0.0,0.0,0.0,0.0,0.0,0.0,0.0,0.0,0.0,-0.028,0.019,-9.6,0.0,0.0,0.0,0.0,0.0,0.0,0.0,0.0,0.0
1581113100575304823,122,1581113100575160026,,0.859223230695,-0.00207319664442,-0.509191124987,0.860648657335,0.0,0.0,0.0,0.0,0.0,0.0,0.0,0.0,0.0,-0.00096,6e-05,-0.00211,0.0,0.0,0.0,0.0,0.0,0.0,0.0,0.0,0.0,-0.036,0.002,-9.6,0.0,0.0,0.0,0.0,0.0,0.0,0.0,0.0,0.0
1581113100599899803,123,1581113100599792003,,0.859223230695,-0.0020807247046,-0.509183606906,0.860653076815,0.0,0.0,0.0,0.0,0.0,0.0,0.0,0.0,0.0,0.000627,-0.001725,0.002568,0.0,0.0,0.0,0.0,0.0,0.0,0.0,0.0,0.0,-0.024,0.02,-9.61,0.0,0.0,0.0,0.0,0.0,0.0,0.0,0.0,0.0
1581113100624922605,124,1581113100624815940,,0.859245547651,-0.00206131234091,-0.509161107825,0.860666437466,0.0,0.0,0.0,0.0,0.0,0.0,0.0,0.0,0.0,-2.1e-05,-0.000345,0.003548,0.0,0.0,0.0,0.0,0.0,0.0,0.0,0.0,0.0,-0.034,0.002,-9.607,0.0,0.0,0.0,0.0,0.0,0.0,0.0,0.0,0.0
1581113100649841570,125,1581113100649694919,,0.859245547651,-0.00206131234091,-0.509161107825,0.860666437466,0.0,0.0,0.0,0.0,0.0,0.0,0.0,0.0,0.0,-0.000518,-0.000609,-0.003396,0.0,0.0,0.0,0.0,0.0,0.0,0.0,0.0,0.0,-0.045,0.032,-9.592,0.0,0.0,0.0,0.0,0.0,0.0,0.0,0.0,0.0
1581113100675311676,126,1581113100675199031,,0.859258929835,-0.00205247855979,-0.509138611356,0.860679731938,0.0,0.0,0.0,0.0,0.0,0.0,0.0,0.0,0.0,-0.000622,-0.000737,0.002131,0.0,0.0,0.0,0.0,0.0,0.0,0.0,0.0,0.0,-0.048,0.006,-9.603,0.0,0.0,0.0,0.0,0.0,0.0,0.0,0.0,0.0
1581113100699870552,127,1581113100699758052,,0.859245537443,-0.00204489750723,-0.509168661647,0.860661983128,0.0,0.0,0.0,0.0,0.0,0.0,0.0,0.0,0.0,-8e-06,-6.8e-05,-0.00175,0.0,0.0,0.0,0.0,0.0,0.0,0.0,0.0,0.0,-0.048,0.022,-9.612,0.0,0.0,0.0,0.0,0.0,0.0,0.0,0.0,0.0
1581113100725015409,128,1581113100724910020,,0.859250001639,-0.00204491505442,-0.509161150935,0.86066642643,0.0,0.0,0.0,0.0,0.0,0.0,0.0,0.0,0.0,-0.000462,-0.001084,0.000334,0.0,0.0,0.0,0.0,0.0,0.0,0.0,0.0,0.0,-0.059,0.007,-9.603,0.0,0.0,0.0,0.0,0.0,0.0,0.0,0.0,0.0
1581113100750116944,129,1581113100749979019,,0.859245537443,-0.00203736928886,-0.509176179493,0.860657563699,0.0,0.0,0.0,0.0,0.0,0.0,0.0,0.0,0.0,0.00089,0.000338,-0.000134,0.0,0.0,0.0,0.0,0.0,0.0,0.0,0.0,0.0,-0.059,0.006,-9.582,0.0,0.0,0.0,0.0,0.0,0.0,0.0,0.0,0.0
1581113100774840882,130,1581113100774692058,,0.859254470906,-0.0020343194223,-0.509168658219,0.860662048377,0.0,0.0,0.0,0.0,0.0,0.0,0.0,0.0,0.0,-0.000501,-0.000759,0.001793,0.0,0.0,0.0,0.0,0.0,0.0,0.0,0.0,0.0,-0.062,0.011,-9.607,0.0,0.0,0.0,0.0,0.0,0.0,0.0,0.0,0.0
1581113100800416302,131,1581113100800311088,,0.859263409048,-0.00205076873618,-0.509146083051,0.860675389005,0.0,0.0,0.0,0.0,0.0,0.0,0.0,0.0,0.0,-0.000338,-0.00098,0.000821,0.0,0.0,0.0,0.0,0.0,0.0,0.0,0.0,0.0,-0.024,0.016,-9.598,0.0,0.0,0.0,0.0,0.0,0.0,0.0,0.0,0.0
1581113100825515191,132,1581113100825390100,,0.859267862905,-0.00202684344273,-0.509153643914,0.860670958684,0.0,0.0,0.0,0.0,0.0,0.0,0.0,0.0,0.0,-0.001663,-7.4e-05,-0.003002,0.0,0.0,0.0,0.0,0.0,0.0,0.0,0.0,0.0,-0.04,0.005,-9.584,0.0,0.0,0.0,0.0,0.0,0.0,0.0,0.0,0.0
1581113100850551084,133,1581113100850447893,,0.859285717988,-0.00201185644183,-0.509138636497,0.860679892303,0.0,0.0,0.0,0.0,0.0,0.0,0.0,0.0,0.0,0.000544,0.001394,-0.001132,0.0,0.0,0.0,0.0,0.0,0.0,0.0,0.0,0.0,-0.05,0.012,-9.624,0.0,0.0,0.0,0.0,0.0,0.0,0.0,0.0,0.0
1581113100875508737,134,1581113100875395059,,0.859290176458,-0.00200743072167,-0.509131143166,0.860684318023,0.0,0.0,0.0,0.0,0.0,0.0,0.0,0.0,0.0,0.000141,-0.000247,0.000269,0.0,0.0,0.0,0.0,0.0,0.0,0.0,0.0,0.0,-0.046,0.022,-9.585,0.0,0.0,0.0,0.0,0.0,0.0,0.0,0.0,0.0
1581113100899800215,135,1581113100899694919,,0.859290176458,-0.0019999025033,-0.509138661012,0.860679898594,0.0,0.0,0.0,0.0,0.0,0.0,0.0,0.0,0.0,-0.000423,-0.000974,-0.002807,0.0,0.0,0.0,0.0,0.0,0.0,0.0,0.0,0.0,-0.083,0.004,-9.576,0.0,0.0,0.0,0.0,0.0,0.0,0.0,0.0,0.0
1581113100925384056,136,1581113100925190925,,0.859285707649,-0.00201049861857,-0.509131153715,0.860684276922,0.0,0.0,0.0,0.0,0.0,0.0,0.0,0.0,0.0,-0.000285,-0.000411,-0.001906,0.0,0.0,0.0,0.0,0.0,0.0,0.0,0.0,0.0,-0.052,0.037,-9.593,0.0,0.0,0.0,0.0,0.0,0.0,0.0,0.0,0.0
1581113100950588994,137,1581113100950448989,,0.859290165988,-0.00200607313342,-0.509123660334,0.860688702407,0.0,0.0,0.0,0.0,0.0,0.0,0.0,0.0,0.0,-8.2e-05,0.000257,-0.000769,0.0,0.0,0.0,0.0,0.0,0.0,0.0,0.0,0.0,-0.054,0.014,-9.575,0.0,0.0,0.0,0.0,0.0,0.0,0.0,0.0,0.0
1581113100975363663,138,1581113100975250959,,0.859290171256,-0.00201051607543,-0.509123642808,0.860688719896,0.0,0.0,0.0,0.0,0.0,0.0,0.0,0.0,0.0,0.000905,-0.000545,-0.001172,0.0,0.0,0.0,0.0,0.0,0.0,0.0,0.0,0.0,-0.043,0.009,-9.609,0.0,0.0,0.0,0.0,0.0,0.0,0.0,0.0,0.0
1581113101000546190,139,1581113101000421047,,0.859290176458,-0.00201495901729,-0.509123625244,0.86068873732,0.0,0.0,0.0,0.0,0.0,0.0,0.0,0.0,0.0,0.001711,-0.000559,-0.002828,0.0,0.0,0.0,0.0,0.0,0.0,0.0,0.0,0.0,-0.059,0.018,-9.626,0.0,0.0,0.0,0.0,0.0,0.0,0.0,0.0,0.0
1581113101024771104,140,1581113101024666070,,0.859299103476,-0.00202252224955,-0.509101085237,0.860702042108,0.0,0.0,0.0,0.0,0.0,0.0,0.0,0.0,0.0,0.000925,-0.00041,0.000725,0.0,0.0,0.0,0.0,0.0,0.0,0.0,0.0,0.0,-0.045,0.025,-9.611,0.0,0.0,0.0,0.0,0.0,0.0,0.0,0.0,0.0
1581113101057098310,141,1581113101056749105,,0.859303566887,-0.00202253967903,-0.509093574175,0.86070648482,0.0,0.0,0.0,0.0,0.0,0.0,0.0,0.0,0.0,0.000464,0.000349,0.000118,0.0,0.0,0.0,0.0,0.0,0.0,0.0,0.0,0.0,-0.062,0.003,-9.627,0.0,0.0,0.0,0.0,0.0,0.0,0.0,0.0,0.0
1581113101075915824,142,1581113101075743913,,0.859316956727,-0.00202259196653,-0.509071040758,0.860719812564,0.0,0.0,0.0,0.0,0.0,0.0,0.0,0.0,0.0,0.001013,0.000491,0.002126,0.0,0.0,0.0,0.0,0.0,0.0,0.0,0.0,0.0,-0.057,0.007,-9.599,0.0,0.0,0.0,0.0,0.0,0.0,0.0,0.0,0.0
1581113101100264798,143,1581113101100140094,,0.859325882959,-0.00202262682409,-0.509056018285,0.860728697399,0.0,0.0,0.0,0.0,0.0,0.0,0.0,0.0,0.0,0.000543,-0.000194,0.000665,0.0,0.0,0.0,0.0,0.0,0.0,0.0,0.0,0.0,-0.047,0.007,-9.617,0.0,0.0,0.0,0.0,0.0,0.0,0.0,0.0,0.0
1581113101125301812,144,1581113101125174999,,0.859343734639,-0.00202269653737,-0.509025972876,0.860746466281,0.0,0.0,0.0,0.0,0.0,0.0,0.0,0.0,0.0,4.1e-05,-0.001517,0.001195,0.0,0.0,0.0,0.0,0.0,0.0,0.0,0.0,0.0,-0.054,0.022,-9.597,0.0,0.0,0.0,0.0,0.0,0.0,0.0,0.0,0.0
1581113101149946739,145,1581113101149802923,,0.859343739776,-0.0020271386269,-0.509025955205,0.860746483677,0.0,0.0,0.0,0.0,0.0,0.0,0.0,0.0,0.0,-7.1e-05,-0.001161,0.002281,0.0,0.0,0.0,0.0,0.0,0.0,0.0,0.0,0.0,-0.041,0.011,-9.602,0.0,0.0,0.0,0.0,0.0,0.0,0.0,0.0,0.0
1581113101175019322,146,1581113101174915075,,0.859343739776,-0.0020271386269,-0.509025955205,0.860746483677,0.0,0.0,0.0,0.0,0.0,0.0,0.0,0.0,0.0,-0.000396,0.000306,-0.001695,0.0,0.0,0.0,0.0,0.0,0.0,0.0,0.0,0.0,-0.046,0.014,-9.621,0.0,0.0,0.0,0.0,0.0,0.0,0.0,0.0,0.0
1581113101200089201,147,1581113101199965000,,0.859343739776,-0.0020271386269,-0.509025955205,0.860746483677,0.0,0.0,0.0,0.0,0.0,0.0,0.0,0.0,0.0,0.000449,-0.000179,-0.000546,0.0,0.0,0.0,0.0,0.0,0.0,0.0,0.0,0.0,-0.06,0.014,-9.605,0.0,0.0,0.0,0.0,0.0,0.0,0.0,0.0,0.0
1581113101234055995,148,1581113101233599901,,0.859343739776,-0.0020271386269,-0.509025955205,0.860746483677,0.0,0.0,0.0,0.0,0.0,0.0,0.0,0.0,0.0,8.9e-05,-0.000682,7.7e-05,0.0,0.0,0.0,0.0,0.0,0.0,0.0,0.0,0.0,-0.063,0.01,-9.615,0.0,0.0,0.0,0.0,0.0,0.0,0.0,0.0,0.0
1581113101251198952,149,1581113101250983953,,0.859316966935,-0.00204653411034,-0.509055968423,0.860728684597,0.0,0.0,0.0,0.0,0.0,0.0,0.0,0.0,0.0,-0.000193,-0.000574,-0.002593,0.0,0.0,0.0,0.0,0.0,0.0,0.0,0.0,0.0,-0.073,0.007,-9.599,0.0,0.0,0.0,0.0,0.0,0.0,0.0,0.0,0.0
1581113101275000657,150,1581113101274858951,,0.859321435091,-0.00204346517029,-0.509055957871,0.860728725697,0.0,0.0,0.0,0.0,0.0,0.0,0.0,0.0,0.0,0.000276,0.000341,0.001812,0.0,0.0,0.0,0.0,0.0,0.0,0.0,0.0,0.0,-0.06,0.019,-9.587,0.0,0.0,0.0,0.0,0.0,0.0,0.0,0.0,0.0
1581113101299949302,151,1581113101299804925,,0.859312503721,-0.00205404540158,-0.509055961123,0.860728660735,0.0,0.0,0.0,0.0,0.0,0.0,0.0,0.0,0.0,-0.000793,2.8e-05,-0.000675,0.0,0.0,0.0,0.0,0.0,0.0,0.0,0.0,0.0,-0.056,0.006,-9.62,0.0,0.0,0.0,0.0,0.0,0.0,0.0,0.0,0.0
1581113101324969135,152,1581113101324871063,,0.859312508727,-0.0020660164308,-0.50904842448,0.860733096545,0.0,0.0,0.0,0.0,0.0,0.0,0.0,0.0,0.0,-8.1e-05,0.001408,-0.001859,0.0,0.0,0.0,0.0,0.0,0.0,0.0,0.0,0.0,-0.059,0.036,-9.618,0.0,0.0,0.0,0.0,0.0,0.0,0.0,0.0,0.0
1581113101350129850,153,1581113101349997997,,0.859312498649,-0.00205713185943,-0.509048460461,0.86073306164,0.0,0.0,0.0,0.0,0.0,0.0,0.0,0.0,0.0,0.000216,-0.000385,-0.001712,0.0,0.0,0.0,0.0,0.0,0.0,0.0,0.0,0.0,-0.05,0.027,-9.558,0.0,0.0,0.0,0.0,0.0,0.0,0.0,0.0,0.0
1581113101375270521,154,1581113101375036954,,0.859316961864,-0.00205714937734,-0.509040949129,0.860737503893,0.0,0.0,0.0,0.0,0.0,0.0,0.0,0.0,0.0,0.000167,0.000157,-0.002274,0.0,0.0,0.0,0.0,0.0,0.0,0.0,0.0,0.0,-0.045,0.033,-9.614,0.0,0.0,0.0,0.0,0.0,0.0,0.0,0.0,0.0
1581113101412715625,155,1581113101412389039,,0.859312498649,-0.00205713185943,-0.509048460461,0.86073306164,0.0,0.0,0.0,0.0,0.0,0.0,0.0,0.0,0.0,0.000545,-0.000765,0.002136,0.0,0.0,0.0,0.0,0.0,0.0,0.0,0.0,0.0,-0.041,0.03,-9.602,0.0,0.0,0.0,0.0,0.0,0.0,0.0,0.0,0.0
1581113101426286305,156,1581113101426037073,,0.859303572024,-0.00206462563236,-0.509055964443,0.860728595289,0.0,0.0,0.0,0.0,0.0,0.0,0.0,0.0,0.0,0.000764,-0.00131,0.000723,0.0,0.0,0.0,0.0,0.0,0.0,0.0,0.0,0.0,-0.065,0.014,-9.634,0.0,0.0,0.0,0.0,0.0,0.0,0.0,0.0,0.0
1581113101450475238,157,1581113101450340986,,0.859321425013,-0.00205716689509,-0.509033437758,0.860741946081,0.0,0.0,0.0,0.0,0.0,0.0,0.0,0.0,0.0,0.000808,-0.000268,0.001538,0.0,0.0,0.0,0.0,0.0,0.0,0.0,0.0,0.0,-0.058,-0.001,-9.585,0.0,0.0,0.0,0.0,0.0,0.0,0.0,0.0,0.0
1581113101475145592,158,1581113101475008010,,0.859325882959,-0.00205274232342,-0.509025944281,0.860746370652,0.0,0.0,0.0,0.0,0.0,0.0,0.0,0.0,0.0,-0.000282,-0.000482,-0.001027,0.0,0.0,0.0,0.0,0.0,0.0,0.0,0.0,0.0,-0.057,0.016,-9.61,0.0,0.0,0.0,0.0,0.0,0.0,0.0,0.0,0.0
1581113101500440631,159,1581113101500334024,,0.859321425013,-0.00206469585875,-0.509025919037,0.86074636417,0.0,0.0,0.0,0.0,0.0,0.0,0.0,0.0,0.0,8.2e-05,-0.001786,-0.001226,0.0,0.0,0.0,0.0,0.0,0.0,0.0,0.0,0.0,-0.06,-0.02,-9.605,0.0,0.0,0.0,0.0,0.0,0.0,0.0,0.0,0.0
1581113101535771765,160,1581113101535521030,,0.859316961864,-0.00205714937734,-0.509040949129,0.860737503893,0.0,0.0,0.0,0.0,0.0,0.0,0.0,0.0,0.0,-1.1e-05,-0.000383,-0.001856,0.0,0.0,0.0,0.0,0.0,0.0,0.0,0.0,0.0,-0.056,0.001,-9.576,0.0,0.0,0.0,0.0,0.0,0.0,0.0,0.0,0.0
1581113101551510921,161,1581113101551354885,,0.859299108613,-0.00206460807537,-0.509063475698,0.860724152905,0.0,0.0,0.0,0.0,0.0,0.0,0.0,0.0,0.0,-0.000383,-0.000387,0.002492,0.0,0.0,0.0,0.0,0.0,0.0,0.0,0.0,0.0,-0.052,0.002,-9.603,0.0,0.0,0.0,0.0,0.0,0.0,0.0,0.0,0.0
1581113101575072915,162,1581113101574964046,,0.859299108613,-0.0020721369232,-0.509055957092,0.860728571192,0.0,0.0,0.0,0.0,0.0,0.0,0.0,0.0,0.0,-0.00053,-3.5e-05,0.000402,0.0,0.0,0.0,0.0,0.0,0.0,0.0,0.0,0.0,-0.068,0.004,-9.617,0.0,0.0,0.0,0.0,0.0,0.0,0.0,0.0,0.0
1581113101600061308,163,1581113101599957942,,0.859308035369,-0.00207217211424,-0.509040934467,0.860737455763,0.0,0.0,0.0,0.0,0.0,0.0,0.0,0.0,0.0,9.5e-05,-0.000476,0.000158,0.0,0.0,0.0,0.0,0.0,0.0,0.0,0.0,0.0,-0.049,0.007,-9.585,0.0,0.0,0.0,0.0,0.0,0.0,0.0,0.0,0.0
1581113101631592917,164,1581113101631349086,,0.859330351114,-0.00207226008909,-0.509003377226,0.860759666045,0.0,0.0,0.0,0.0,0.0,0.0,0.0,0.0,0.0,0.001744,-0.000965,0.001243,0.0,0.0,0.0,0.0,0.0,0.0,0.0,0.0,0.0,-0.047,0.021,-9.604,0.0,0.0,0.0,0.0,0.0,0.0,0.0,0.0,0.0
1581113101650658727,165,1581113101650527954,,0.859325893168,-0.00208421354339,-0.509003351669,0.860759659482,0.0,0.0,0.0,0.0,0.0,0.0,0.0,0.0,0.0,0.000874,-0.000868,0.002141,0.0,0.0,0.0,0.0,0.0,0.0,0.0,0.0,0.0,-0.056,0.005,-9.61,0.0,0.0,0.0,0.0,0.0,0.0,0.0,0.0,0.0
1581113101675656362,166,1581113101675093889,,0.859343749854,-0.00208119626331,-0.50898080617,0.860773026484,0.0,0.0,0.0,0.0,0.0,0.0,0.0,0.0,0.0,-0.00028,-0.000542,-0.001903,0.0,0.0,0.0,0.0,0.0,0.0,0.0,0.0,0.0,-0.052,0.007,-9.59,0.0,0.0,0.0,0.0,0.0,0.0,0.0,0.0,0.0
1581113101700059471,167,1581113101699956893,,0.859348212611,-0.00208121372623,-0.508973294489,0.860777468147,0.0,0.0,0.0,0.0,0.0,0.0,0.0,0.0,0.0,0.00038,0.000201,0.001818,0.0,0.0,0.0,0.0,0.0,0.0,0.0,0.0,0.0,-0.079,0.018,-9.604,0.0,0.0,0.0,0.0,0.0,0.0,0.0,0.0,0.0
1581113101725067911,168,1581113101724956035,,0.859339287033,-0.00208117880024,-0.508988317812,0.860768584756,0.0,0.0,0.0,0.0,0.0,0.0,0.0,0.0,0.0,0.000179,0.000678,-0.001979,0.0,0.0,0.0,0.0,0.0,0.0,0.0,0.0,0.0,-0.059,-0.005,-9.581,0.0,0.0,0.0,0.0,0.0,0.0,0.0,0.0,0.0
1581113101750093686,169,1581113101749988079,,0.859348212611,-0.0020887429447,-0.508965775251,0.860781885657,0.0,0.0,0.0,0.0,0.0,0.0,0.0,0.0,0.0,-0.001526,0.001513,-0.001386,0.0,0.0,0.0,0.0,0.0,0.0,0.0,0.0,0.0,-0.084,0.027,-9.589,0.0,0.0,0.0,0.0,0.0,0.0,0.0,0.0,0.0
1581113101787999865,170,1581113101787656068,,0.859352675302,-0.00208876044606,-0.508958263493,0.860786327189,0.0,0.0,0.0,0.0,0.0,0.0,0.0,0.0,0.0,-0.000215,-0.000503,-0.000757,0.0,0.0,0.0,0.0,0.0,0.0,0.0,0.0,0.0,-0.029,0.014,-9.602,0.0,0.0,0.0,0.0,0.0,0.0,0.0,0.0,0.0
1581113101801421210,171,1581113101801268100,,0.859339287033,-0.00208117880024,-0.508988317812,0.860768584756,0.0,0.0,0.0,0.0,0.0,0.0,0.0,0.0,0.0,-0.001062,0.000523,0.001511,0.0,0.0,0.0,0.0,0.0,0.0,0.0,0.0,0.0,-0.049,0.014,-9.587,0.0,0.0,0.0,0.0,0.0,0.0,0.0,0.0,0.0
1581113101825225493,172,1581113101825076103,,0.859321440031,-0.0020930798907,-0.509010826741,0.860755252561,0.0,0.0,0.0,0.0,0.0,0.0,0.0,0.0,0.0,-2.8e-05,-0.000761,-0.00262,0.0,0.0,0.0,0.0,0.0,0.0,0.0,0.0,0.0,-0.072,0.019,-9.589,0.0,0.0,0.0,0.0,0.0,0.0,0.0,0.0,0.0
1581113101850404963,173,1581113101850281000,,0.859299128507,-0.00209743498958,-0.509048365506,0.86073305936,0.0,0.0,0.0,0.0,0.0,0.0,0.0,0.0,0.0,0.000257,-0.000254,0.001071,0.0,0.0,0.0,0.0,0.0,0.0,0.0,0.0,0.0,-0.036,0.007,-9.609,0.0,0.0,0.0,0.0,0.0,0.0,0.0,0.0,0.0
1581113101875416576,174,1581113101875304937,,0.859303596727,-0.00210189458098,-0.50904083585,0.860737518951,0.0,0.0,0.0,0.0,0.0,0.0,0.0,0.0,0.0,0.000508,-0.000922,-0.000847,0.0,0.0,0.0,0.0,0.0,0.0,0.0,0.0,0.0,-0.061,0.009,-9.615,0.0,0.0,0.0,0.0,0.0,0.0,0.0,0.0,0.0
1581113101899825299,175,1581113101899719953,,0.859303596727,-0.0020943659454,-0.5090483549,0.860733100669,0.0,0.0,0.0,0.0,0.0,0.0,0.0,0.0,0.0,-0.000414,0.000519,-0.002237,0.0,0.0,0.0,0.0,0.0,0.0,0.0,0.0,0.0,-0.034,0.041,-9.636,0.0,0.0,0.0,0.0,0.0,0.0,0.0,0.0,0.0
1581113101925784314,176,1581113101925673007,,0.859281274209,-0.00209736549993,-0.509078410447,0.860715289695,0.0,0.0,0.0,0.0,0.0,0.0,0.0,0.0,0.0,-0.000971,0.00058,-0.000185,0.0,0.0,0.0,0.0,0.0,0.0,0.0,0.0,0.0,-0.071,-0.001,-9.605,0.0,0.0,0.0,0.0,0.0,0.0,0.0,0.0,0.0
1581113101950266048,177,1581113101950150966,,0.859281279019,-0.00209427960451,-0.509085910982,0.860710888425,0.0,0.0,0.0,0.0,0.0,0.0,0.0,0.0,0.0,-0.001522,0.000918,-0.002922,0.0,0.0,0.0,0.0,0.0,0.0,0.0,0.0,0.0,-0.045,0.008,-9.596,0.0,0.0,0.0,0.0,0.0,0.0,0.0,0.0,0.0
1581113101976330124,178,1581113101976227045,,0.859272351477,-0.00210177343236,-0.509093414363,0.86070642181,0.0,0.0,0.0,0.0,0.0,0.0,0.0,0.0,0.0,0.000881,0.000393,-0.001069,0.0,0.0,0.0,0.0,0.0,0.0,0.0,0.0,0.0,-0.044,-0.008,-9.633,0.0,0.0,0.0,0.0,0.0,0.0,0.0,0.0,0.0
1581113102000028447,179,1581113101999891996,,0.859267892352,-0.00210619886838,-0.509100907064,0.860701996374,0.0,0.0,0.0,0.0,0.0,0.0,0.0,0.0,0.0,-0.000847,-1e-05,-0.002671,0.0,0.0,0.0,0.0,0.0,0.0,0.0,0.0,0.0,-0.057,-0.006,-9.615,0.0,0.0,0.0,0.0,0.0,0.0,0.0,0.0,0.0
1581113102025902457,180,1581113102025701045,,0.859272356221,-0.00211374448735,-0.50908587708,0.860710857734,0.0,0.0,0.0,0.0,0.0,0.0,0.0,0.0,0.0,0.0006,-0.000331,0.001877,0.0,0.0,0.0,0.0,0.0,0.0,0.0,0.0,0.0,-0.049,0.021,-9.598,0.0,0.0,0.0,0.0,0.0,0.0,0.0,0.0,0.0
1581113102050813403,181,1581113102050707101,,0.859263428418,-0.0021137099259,-0.509100899241,0.860701972378,0.0,0.0,0.0,0.0,0.0,0.0,0.0,0.0,0.0,-0.000672,-0.001261,-0.001014,0.0,0.0,0.0,0.0,0.0,0.0,0.0,0.0,0.0,-0.033,0.016,-9.576,0.0,0.0,0.0,0.0,0.0,0.0,0.0,0.0,0.0
1581113102076299629,182,1581113102076168060,,0.859272356221,-0.00211374448735,-0.50908587708,0.860710857734,0.0,0.0,0.0,0.0,0.0,0.0,0.0,0.0,0.0,0.000535,-0.001309,0.002267,0.0,0.0,0.0,0.0,0.0,0.0,0.0,0.0,0.0,-0.055,0.0,-9.608,0.0,0.0,0.0,0.0,0.0,0.0,0.0,0.0,0.0
1581113102101289872,183,1581113102101037025,,0.859263428418,-0.00212123830283,-0.509093380318,0.860706391028,0.0,0.0,0.0,0.0,0.0,0.0,0.0,0.0,0.0,0.000144,-0.000994,0.001597,0.0,0.0,0.0,0.0,0.0,0.0,0.0,0.0,0.0,-0.064,-0.001,-9.598,0.0,0.0,0.0,0.0,0.0,0.0,0.0,0.0,0.0
1581113102126515938,184,1581113102126396894,,0.859267892352,-0.00212125562225,-0.509085869219,0.860710833673,0.0,0.0,0.0,0.0,0.0,0.0,0.0,0.0,0.0,-0.000363,-0.000332,0.000862,0.0,0.0,0.0,0.0,0.0,0.0,0.0,0.0,0.0,-0.033,0.012,-9.592,0.0,0.0,0.0,0.0,0.0,0.0,0.0,0.0,0.0
1581113102149958609,185,1581113102149756908,,0.859285742691,-0.00211688254811,-0.509055842925,0.860728586246,0.0,0.0,0.0,0.0,0.0,0.0,0.0,0.0,0.0,-0.000796,-0.000426,-0.001569,0.0,0.0,0.0,0.0,0.0,0.0,0.0,0.0,0.0,-0.043,-0.002,-9.584,0.0,0.0,0.0,0.0,0.0,0.0,0.0,0.0,0.0
1581113102175948533,186,1581113102175795078,,0.85927681528,-0.00211684777931,-0.509070865396,0.860719701415,0.0,0.0,0.0,0.0,0.0,0.0,0.0,0.0,0.0,-0.000379,-0.000846,-0.001978,0.0,0.0,0.0,0.0,0.0,0.0,0.0,0.0,0.0,-0.065,0.012,-9.581,0.0,0.0,0.0,0.0,0.0,0.0,0.0,0.0,0.0
1581113102200424104,187,1581113102200254917,,0.859272346667,-0.00211238784768,-0.509078395026,0.860715241483,0.0,0.0,0.0,0.0,0.0,0.0,0.0,0.0,0.0,-0.000295,0.000365,0.000899,0.0,0.0,0.0,0.0,0.0,0.0,0.0,0.0,0.0,-0.06,0.008,-9.588,0.0,0.0,0.0,0.0,0.0,0.0,0.0,0.0,0.0
1581113102226448424,188,1581113102226326942,,0.859272346667,-0.00211238784768,-0.509078395026,0.860715241483,0.0,0.0,0.0,0.0,0.0,0.0,0.0,0.0,0.0,0.000359,-0.000514,-0.000796,0.0,0.0,0.0,0.0,0.0,0.0,0.0,0.0,0.0,-0.066,0.038,-9.608,0.0,0.0,0.0,0.0,0.0,0.0,0.0,0.0,0.0
1581113102251524335,189,1581113102251399993,,0.859276805596,-0.00210796281626,-0.509070902264,0.860719666514,0.0,0.0,0.0,0.0,0.0,0.0,0.0,0.0,0.0,-0.000117,0.000566,0.001977,0.0,0.0,0.0,0.0,0.0,0.0,0.0,0.0,0.0,-0.043,0.008,-9.641,0.0,0.0,0.0,0.0,0.0,0.0,0.0,0.0,0.0
1581113102276005591,190,1581113102275895118,,0.859285737881,-0.00211996897617,-0.509048342318,0.860732986942,0.0,0.0,0.0,0.0,0.0,0.0,0.0,0.0,0.0,0.00041,0.000326,-0.003124,0.0,0.0,0.0,0.0,0.0,0.0,0.0,0.0,0.0,-0.047,-0.0,-9.587,0.0,0.0,0.0,0.0,0.0,0.0,0.0,0.0,0.0
1581113102300975088,191,1581113102300818920,,0.859290201489,-0.00211998646448,-0.509040830987,0.860737429194,0.0,0.0,0.0,0.0,0.0,0.0,0.0,0.0,0.0,-0.001226,-0.000346,0.001861,0.0,0.0,0.0,0.0,0.0,0.0,0.0,0.0,0.0,-0.033,0.007,-9.566,0.0,0.0,0.0,0.0,0.0,0.0,0.0,0.0,0.0
1581113102326559947,192,1581113102326441049,,0.85929466984,-0.00212444610627,-0.509033301096,0.860741888836,0.0,0.0,0.0,0.0,0.0,0.0,0.0,0.0,0.0,4.5e-05,3.7e-05,0.000664,0.0,0.0,0.0,0.0,0.0,0.0,0.0,0.0,0.0,-0.044,0.017,-9.607,0.0,0.0,0.0,0.0,0.0,0.0,0.0,0.0,0.0
1581113102351280841,193,1581113102351162910,,0.85929466503,-0.00211247509701,-0.509040838754,0.860737453399,0.0,0.0,0.0,0.0,0.0,0.0,0.0,0.0,0.0,-0.000716,0.001132,-0.002509,0.0,0.0,0.0,0.0,0.0,0.0,0.0,0.0,0.0,-0.05,0.026,-9.618,0.0,0.0,0.0,0.0,0.0,0.0,0.0,0.0,0.0
1581113102376222821,194,1581113102376055955,,0.85929466503,-0.00211247509701,-0.509040838754,0.860737453399,0.0,0.0,0.0,0.0,0.0,0.0,0.0,0.0,0.0,-0.001452,-0.000631,-0.001006,0.0,0.0,0.0,0.0,0.0,0.0,0.0,0.0,0.0,-0.038,-0.012,-9.612,0.0,0.0,0.0,0.0,0.0,0.0,0.0,0.0,0.0
1581113102401158267,195,1581113102400990962,,0.859303591918,-0.00212003892845,-0.509018296759,0.860750755557,0.0,0.0,0.0,0.0,0.0,0.0,0.0,0.0,0.0,1e-05,-0.000815,0.002225,0.0,0.0,0.0,0.0,0.0,0.0,0.0,0.0,0.0,-0.044,0.021,-9.597,0.0,0.0,0.0,0.0,0.0,0.0,0.0,0.0,0.0
1581113102426799602,196,1581113102426668882,,0.859316976882,-0.00210812045066,-0.50900329993,0.860759646195,0.0,0.0,0.0,0.0,0.0,0.0,0.0,0.0,0.0,-0.000271,0.000911,0.002117,0.0,0.0,0.0,0.0,0.0,0.0,0.0,0.0,0.0,-0.071,0.021,-9.61,0.0,0.0,0.0,0.0,0.0,0.0,0.0,0.0,0.0
1581113102451449838,197,1581113102451348066,,0.859316971942,-0.00211120773871,-0.508995799108,0.860764046224,0.0,0.0,0.0,0.0,0.0,0.0,0.0,0.0,0.0,-0.000237,-5.5e-05,-0.000304,0.0,0.0,0.0,0.0,0.0,0.0,0.0,0.0,0.0,-0.054,0.007,-9.605,0.0,0.0,0.0,0.0,0.0,0.0,0.0,0.0,0.0
1581113102476489045,198,1581113102476382970,,0.859321435091,-0.00210369613852,-0.508995806743,0.860764070507,0.0,0.0,0.0,0.0,0.0,0.0,0.0,0.0,0.0,0.000425,0.000403,-0.000433,0.0,0.0,0.0,0.0,0.0,0.0,0.0,0.0,0.0,-0.042,0.008,-9.584,0.0,0.0,0.0,0.0,0.0,0.0,0.0,0.0,0.0
1581113102500921494,199,1581113102500816106,,0.859325903115,-0.00210815547876,-0.508988276762,0.860768529847,0.0,0.0,0.0,0.0,0.0,0.0,0.0,0.0,0.0,-2.7e-05,-0.000263,0.002046,0.0,0.0,0.0,0.0,0.0,0.0,0.0,0.0,0.0,-0.044,0.001,-9.629,0.0,0.0,0.0,0.0,0.0,0.0,0.0,0.0,0.0
1581113102525993977,200,1581113102525887966,,0.859325903115,-0.00210815547876,-0.508988276762,0.860768529847,0.0,0.0,0.0,0.0,0.0,0.0,0.0,0.0,0.0,0.000271,-0.001004,0.001781,0.0,0.0,0.0,0.0,0.0,0.0,0.0,0.0,0.0,-0.065,0.024,-9.594,0.0,0.0,0.0,0.0,0.0,0.0,0.0,0.0,0.0
1581113102551153753,201,1581113102550919055,,0.859316976882,-0.00211564956491,-0.508995780664,0.86076406381,0.0,0.0,0.0,0.0,0.0,0.0,0.0,0.0,0.0,-1.6e-05,-0.000114,0.001681,0.0,0.0,0.0,0.0,0.0,0.0,0.0,0.0,0.0,-0.038,0.022,-9.626,0.0,0.0,0.0,0.0,0.0,0.0,0.0,0.0,0.0
1581113102575904830,202,1581113102575802087,,0.859316971942,-0.00211120773871,-0.508995799108,0.860764046224,0.0,0.0,0.0,0.0,0.0,0.0,0.0,0.0,0.0,-0.001582,8.4e-05,0.001907,0.0,0.0,0.0,0.0,0.0,0.0,0.0,0.0,0.0,-0.037,-0.01,-9.611,0.0,0.0,0.0,0.0,0.0,0.0,0.0,0.0,0.0
1581113102601083324,203,1581113102600931882,,0.859325898174,-0.00211124297511,-0.508980775863,0.860772929746,0.0,0.0,0.0,0.0,0.0,0.0,0.0,0.0,0.0,-0.000299,-0.000703,0.000824,0.0,0.0,0.0,0.0,0.0,0.0,0.0,0.0,0.0,-0.037,0.016,-9.584,0.0,0.0,0.0,0.0,0.0,0.0,0.0,0.0,0.0
1581113102626442391,204,1581113102626312971,,0.859321435091,-0.00210369613852,-0.508995806743,0.860764070507,0.0,0.0,0.0,0.0,0.0,0.0,0.0,0.0,0.0,0.00017,0.00029,0.001519,0.0,0.0,0.0,0.0,0.0,0.0,0.0,0.0,0.0,-0.042,0.02,-9.615,0.0,0.0,0.0,0.0,0.0,0.0,0.0,0.0,0.0
1581113102651195490,205,1581113102651056051,,0.859316966935,-0.00209923666686,-0.509003336646,0.860759611035,0.0,0.0,0.0,0.0,0.0,0.0,0.0,0.0,0.0,-1.4e-05,-0.000464,0.002071,0.0,0.0,0.0,0.0,0.0,0.0,0.0,0.0,0.0,-0.044,0.034,-9.586,0.0,0.0,0.0,0.0,0.0,0.0,0.0,0.0,0.0
1581113102675986530,206,1581113102675828933,,0.859321430084,-0.00209925431209,-0.508995825082,0.860764052895,0.0,0.0,0.0,0.0,0.0,0.0,0.0,0.0,0.0,-9.5e-05,-0.001054,2.9e-05,0.0,0.0,0.0,0.0,0.0,0.0,0.0,0.0,0.0,-0.063,0.037,-9.586,0.0,0.0,0.0,0.0,0.0,0.0,0.0,0.0,0.0
1581113102700772335,207,1581113102700670003,,0.859312498649,-0.00209477706377,-0.509010866471,0.860755151432,0.0,0.0,0.0,0.0,0.0,0.0,0.0,0.0,0.0,-0.000723,0.000118,-0.000172,0.0,0.0,0.0,0.0,0.0,0.0,0.0,0.0,0.0,-0.046,0.003,-9.598,0.0,0.0,0.0,0.0,0.0,0.0,0.0,0.0,0.0
1581113102726332920,208,1581113102726221084,,0.859316961864,-0.00208726554082,-0.509010873937,0.860755175727,0.0,0.0,0.0,0.0,0.0,0.0,0.0,0.0,0.0,0.000981,-2e-06,0.000912,0.0,0.0,0.0,0.0,0.0,0.0,0.0,0.0,0.0,-0.065,0.024,-9.585,0.0,0.0,0.0,0.0,0.0,0.0,0.0,0.0,0.0
1581113102751473589,209,1581113102751307964,,0.859321425013,-0.00209481248549,-0.508995843382,0.860764035217,0.0,0.0,0.0,0.0,0.0,0.0,0.0,0.0,0.0,-0.000245,0.0002,0.00052,0.0,0.0,0.0,0.0,0.0,0.0,0.0,0.0,0.0,-0.053,0.006,-9.619,0.0,0.0,0.0,0.0,0.0,0.0,0.0,0.0,0.0
1581113102776047734,210,1581113102775939941,,0.859303572024,-0.00208721252332,-0.50903340828,0.860741849558,0.0,0.0,0.0,0.0,0.0,0.0,0.0,0.0,0.0,-0.000479,0.000503,-0.001887,0.0,0.0,0.0,0.0,0.0,0.0,0.0,0.0,0.0,-0.065,0.004,-9.611,0.0,0.0,0.0,0.0,0.0,0.0,0.0,0.0,0.0
1581113102800958439,211,1581113102800849914,,0.859308030232,-0.00207525896187,-0.509033433837,0.860741856121,0.0,0.0,0.0,0.0,0.0,0.0,0.0,0.0,0.0,-0.000513,9.1e-05,-0.000405,0.0,0.0,0.0,0.0,0.0,0.0,0.0,0.0,0.0,-0.038,0.002,-9.642,0.0,0.0,0.0,0.0,0.0,0.0,0.0,0.0,0.0
1581113102826546131,212,1581113102826404094,,0.859316961864,-0.00207973638413,-0.50901839285,0.860750757965,0.0,0.0,0.0,0.0,0.0,0.0,0.0,0.0,0.0,-0.000594,0.000555,-0.001526,0.0,0.0,0.0,0.0,0.0,0.0,0.0,0.0,0.0,-0.045,0.003,-9.56,0.0,0.0,0.0,0.0,0.0,0.0,0.0,0.0,0.0
1581113102852598458,213,1581113102852406024,,0.859321425013,-0.0020797540177,-0.509010881364,0.860755199956,0.0,0.0,0.0,0.0,0.0,0.0,0.0,0.0,0.0,-0.000154,-5.8e-05,0.001643,0.0,0.0,0.0,0.0,0.0,0.0,0.0,0.0,0.0,-0.044,0.003,-9.586,0.0,0.0,0.0,0.0,0.0,0.0,0.0,0.0,0.0
1581113102876663923,214,1581113102876513004,,0.859312493512,-0.00208280584501,-0.509018403618,0.860750716031,0.0,0.0,0.0,0.0,0.0,0.0,0.0,0.0,0.0,-0.000749,3.1e-05,0.002186,0.0,0.0,0.0,0.0,0.0,0.0,0.0,0.0,0.0,-0.039,0.033,-9.621,0.0,0.0,0.0,0.0,0.0,0.0,0.0,0.0,0.0
1581113102901829186,215,1581113102901710987,,0.859316956727,-0.0020828235829,-0.509010892132,0.860755158022,0.0,0.0,0.0,0.0,0.0,0.0,0.0,0.0,0.0,0.000169,-0.001108,0.00264,0.0,0.0,0.0,0.0,0.0,0.0,0.0,0.0,0.0,-0.049,0.023,-9.598,0.0,0.0,0.0,0.0,0.0,0.0,0.0,0.0,0.0
1581113102926302285,216,1581113102926122903,,0.859299103476,-0.00209028177548,-0.509033419074,0.86074180752,0.0,0.0,0.0,0.0,0.0,0.0,0.0,0.0,0.0,-0.000605,-0.000575,-0.002888,0.0,0.0,0.0,0.0,0.0,0.0,0.0,0.0,0.0,-0.053,0.021,-9.594,0.0,0.0,0.0,0.0,0.0,0.0,0.0,0.0,0.0
1581113102951248147,217,1581113102951082944,,0.85929464,-0.00209779318205,-0.509033411634,0.860741783121,0.0,0.0,0.0,0.0,0.0,0.0,0.0,0.0,0.0,-0.000377,-0.000703,-0.001308,0.0,0.0,0.0,0.0,0.0,0.0,0.0,0.0,0.0,-0.043,0.025,-9.582,0.0,0.0,0.0,0.0,0.0,0.0,0.0,0.0,0.0
1581113102976560161,218,1581113102976443052,,0.859303561685,-0.00208585746334,-0.509025925887,0.860746231832,0.0,0.0,0.0,0.0,0.0,0.0,0.0,0.0,0.0,0.000962,-0.000499,3.9e-05,0.0,0.0,0.0,0.0,0.0,0.0,0.0,0.0,0.0,-0.061,0.009,-9.6,0.0,0.0,0.0,0.0,0.0,0.0,0.0,0.0,0.0
1581113103010624003,219,1581113103009845972,,0.859285712851,-0.0020977575501,-0.509048434335,0.860732898681,0.0,0.0,0.0,0.0,0.0,0.0,0.0,0.0,0.0,0.00084,0.000721,0.001118,0.0,0.0,0.0,0.0,0.0,0.0,0.0,0.0,0.0,-0.044,-0.008,-9.619,0.0,0.0,0.0,0.0,0.0,0.0,0.0,0.0,0.0
1581113103027447879,220,1581113103027256965,,0.85929464,-0.00209779318205,-0.509033411634,0.860741783121,0.0,0.0,0.0,0.0,0.0,0.0,0.0,0.0,0.0,-0.000691,-0.00015,0.001255,0.0,0.0,0.0,0.0,0.0,0.0,0.0,0.0,0.0,-0.051,0.024,-9.603,0.0,0.0,0.0,0.0,0.0,0.0,0.0,0.0,0.0
1581113103051187335,221,1581113103051028013,,0.859299108613,-0.00210225308667,-0.5090258819,0.860746243025,0.0,0.0,0.0,0.0,0.0,0.0,0.0,0.0,0.0,-6.9e-05,-0.00159,0.001043,0.0,0.0,0.0,0.0,0.0,0.0,0.0,0.0,0.0,-0.039,0.013,-9.603,0.0,0.0,0.0,0.0,0.0,0.0,0.0,0.0,0.0
1581113103075983016,222,1581113103075841903,,0.859281254316,-0.00210218208497,-0.509055927301,0.860728474146,0.0,0.0,0.0,0.0,0.0,0.0,0.0,0.0,0.0,-5e-06,-0.001632,-0.00295,0.0,0.0,0.0,0.0,0.0,0.0,0.0,0.0,0.0,-0.051,0.014,-9.583,0.0,0.0,0.0,0.0,0.0,0.0,0.0,0.0,0.0
1581113103100904028,223,1581113103100801944,,0.859281259387,-0.00210662443589,-0.509055908937,0.860728491864,0.0,0.0,0.0,0.0,0.0,0.0,0.0,0.0,0.0,-0.000944,-0.000115,0.000266,0.0,0.0,0.0,0.0,0.0,0.0,0.0,0.0,0.0,-0.042,0.016,-9.615,0.0,0.0,0.0,0.0,0.0,0.0,0.0,0.0,0.0
1581113103126264269,224,1581113103126158952,,0.85928572306,-0.00211417117348,-0.509040878704,0.860737352048,0.0,0.0,0.0,0.0,0.0,0.0,0.0,0.0,0.0,0.000237,-0.000548,-0.000359,0.0,0.0,0.0,0.0,0.0,0.0,0.0,0.0,0.0,-0.04,-0.003,-9.592,0.0,0.0,0.0,0.0,0.0,0.0,0.0,0.0,0.0
1581113103151228634,225,1581113103151073932,,0.859290191673,-0.00211863105109,-0.509033348865,0.860741811925,0.0,0.0,0.0,0.0,0.0,0.0,0.0,0.0,0.0,3.4e-05,0.000501,-0.002117,0.0,0.0,0.0,0.0,0.0,0.0,0.0,0.0,0.0,-0.024,0.022,-9.609,0.0,0.0,0.0,0.0,0.0,0.0,0.0,0.0,0.0
1581113103176373293,226,1581113103176234006,,0.859299118691,-0.00211113726397,-0.509025845131,0.860746278395,0.0,0.0,0.0,0.0,0.0,0.0,0.0,0.0,0.0,-0.000916,-9.6e-05,0.000846,0.0,0.0,0.0,0.0,0.0,0.0,0.0,0.0,0.0,-0.068,0.011,-9.586,0.0,0.0,0.0,0.0,0.0,0.0,0.0,0.0,0.0
1581113103200936753,227,1581113103200797080,,0.859299118691,-0.00211113726397,-0.509025845131,0.860746278395,0.0,0.0,0.0,0.0,0.0,0.0,0.0,0.0,0.0,-0.000981,0.000155,-0.004384,0.0,0.0,0.0,0.0,0.0,0.0,0.0,0.0,0.0,-0.07,0.016,-9.588,0.0,0.0,0.0,0.0,0.0,0.0,0.0,0.0,0.0
1581113103233588065,228,1581113103232948064,,0.859294660155,-0.00211556179884,-0.509033338097,0.86074185386,0.0,0.0,0.0,0.0,0.0,0.0,0.0,0.0,0.0,-0.000552,0.000574,0.001851,0.0,0.0,0.0,0.0,0.0,0.0,0.0,0.0,0.0,-0.04,0.007,-9.606,0.0,0.0,0.0,0.0,0.0,0.0,0.0,0.0,0.0
1581113103256899294,229,1581113103256700038,,0.85929466503,-0.00212000395263,-0.509033319616,0.86074187138,0.0,0.0,0.0,0.0,0.0,0.0,0.0,0.0,0.0,0.00032,-0.000144,0.001523,0.0,0.0,0.0,0.0,0.0,0.0,0.0,0.0,0.0,-0.047,0.022,-9.611,0.0,0.0,0.0,0.0,0.0,0.0,0.0,0.0,0.0
1581113103276188803,230,1581113103276035070,,0.859303587042,-0.00209301014205,-0.509040872458,0.860737484207,0.0,0.0,0.0,0.0,0.0,0.0,0.0,0.0,0.0,0.000835,0.000849,-0.000362,0.0,0.0,0.0,0.0,0.0,0.0,0.0,0.0,0.0,-0.035,-0.013,-9.601,0.0,0.0,0.0,0.0,0.0,0.0,0.0,0.0,0.0
1581113103300920699,231,1581113103300780057,,0.859294660155,-0.00209297526676,-0.509055895083,0.860728599637,0.0,0.0,0.0,0.0,0.0,0.0,0.0,0.0,0.0,0.000232,0.000392,-0.00331,0.0,0.0,0.0,0.0,0.0,0.0,0.0,0.0,0.0,-0.06,0.012,-9.592,0.0,0.0,0.0,0.0,0.0,0.0,0.0,0.0,0.0
1581113103326275565,232,1581113103326167106,,0.859308055263,-0.00210499855046,-0.509025823703,0.860746361846,0.0,0.0,0.0,0.0,0.0,0.0,0.0,0.0,0.0,-0.000293,0.000552,0.001076,0.0,0.0,0.0,0.0,0.0,0.0,0.0,0.0,0.0,-0.061,0.013,-9.587,0.0,0.0,0.0,0.0,0.0,0.0,0.0,0.0,0.0
1581113103351235759,233,1581113103351131916,,0.859308060073,-0.00210944063868,-0.509025805314,0.860746379224,0.0,0.0,0.0,0.0,0.0,0.0,0.0,0.0,0.0,0.001314,-0.000496,0.001726,0.0,0.0,0.0,0.0,0.0,0.0,0.0,0.0,0.0,-0.047,0.003,-9.571,0.0,0.0,0.0,0.0,0.0,0.0,0.0,0.0,0.0
1581113103384643525,234,1581113103384402990,,0.859321454461,-0.00211393456386,-0.509003252424,0.860759722505,0.0,0.0,0.0,0.0,0.0,0.0,0.0,0.0,0.0,0.000538,-0.001687,8e-06,0.0,0.0,0.0,0.0,0.0,0.0,0.0,0.0,0.0,-0.055,-0.01,-9.621,0.0,0.0,0.0,0.0,0.0,0.0,0.0,0.0,0.0
1581113103401410246,235,1581113103401283025,,0.859303601472,-0.00211386544738,-0.509033298296,0.860741954415,0.0,0.0,0.0,0.0,0.0,0.0,0.0,0.0,0.0,-8e-05,-0.00056,-0.000703,0.0,0.0,0.0,0.0,0.0,0.0,0.0,0.0,0.0,-0.057,-0.012,-9.626,0.0,0.0,0.0,0.0,0.0,0.0,0.0,0.0,0.0
1581113103426906472,236,1581113103426702022,,0.859303601472,-0.00211386544738,-0.509033298296,0.860741954415,0.0,0.0,0.0,0.0,0.0,0.0,0.0,0.0,0.0,0.00023,-0.000672,0.00094,0.0,0.0,0.0,0.0,0.0,0.0,0.0,0.0,0.0,-0.075,0.013,-9.637,0.0,0.0,0.0,0.0,0.0,0.0,0.0,0.0,0.0
1581113103451982631,237,1581113103451874971,,0.8593259128,-0.00211703899973,-0.50898823989,0.860768564744,0.0,0.0,0.0,0.0,0.0,0.0,0.0,0.0,0.0,0.000278,-0.000479,0.001855,0.0,0.0,0.0,0.0,0.0,0.0,0.0,0.0,0.0,-0.051,0.015,-9.585,0.0,0.0,0.0,0.0,0.0,0.0,0.0,0.0,0.0
1581113103476466918,238,1581113103476352930,,0.859343759671,-0.00210513782836,-0.50896573103,0.860781896455,0.0,0.0,0.0,0.0,0.0,0.0,0.0,0.0,0.0,-0.000512,-9.6e-05,-0.000555,0.0,0.0,0.0,0.0,0.0,0.0,0.0,0.0,0.0,-0.034,0.014,-9.612,0.0,0.0,0.0,0.0,0.0,0.0,0.0,0.0,0.0
1581113103501321993,239,1581113103501208066,,0.859339296849,-0.00211264958362,-0.508965723303,0.860781872315,0.0,0.0,0.0,0.0,0.0,0.0,0.0,0.0,0.0,-0.000797,-0.000941,0.001446,0.0,0.0,0.0,0.0,0.0,0.0,0.0,0.0,0.0,-0.046,0.024,-9.573,0.0,0.0,0.0,0.0,0.0,0.0,0.0,0.0,0.0
1581113103526565683,240,1581113103526418924,,0.859370535228,-0.00209771292263,-0.508928179537,0.86080412753,0.0,0.0,0.0,0.0,0.0,0.0,0.0,0.0,0.0,0.00058,-0.000653,-0.000179,0.0,0.0,0.0,0.0,0.0,0.0,0.0,0.0,0.0,-0.028,0.031,-9.643,0.0,0.0,0.0,0.0,0.0,0.0,0.0,0.0,0.0
1581113103563777958,241,1581113103563446044,,0.859379455015,-0.00209330655622,-0.50891317388,0.860812992469,0.0,0.0,0.0,0.0,0.0,0.0,0.0,0.0,0.0,-0.000523,5.1e-05,-0.002706,0.0,0.0,0.0,0.0,0.0,0.0,0.0,0.0,0.0,-0.03,0.014,-9.59,0.0,0.0,0.0,0.0,0.0,0.0,0.0,0.0,0.0
1581113103577150145,242,1581113103576948881,,0.859374987775,-0.00208884795049,-0.508920704119,0.860808533863,0.0,0.0,0.0,0.0,0.0,0.0,0.0,0.0,0.0,0.000951,-0.000936,-0.002376,0.0,0.0,0.0,0.0,0.0,0.0,0.0,0.0,0.0,-0.064,0.002,-9.596,0.0,0.0,0.0,0.0,0.0,0.0,0.0,0.0,0.0
1581113103601304663,243,1581113103601205110,,0.859370530352,-0.00209327168635,-0.508928197824,0.860804110127,0.0,0.0,0.0,0.0,0.0,0.0,0.0,0.0,0.0,-7.9e-05,0.000393,-0.001112,0.0,0.0,0.0,0.0,0.0,0.0,0.0,0.0,0.0,-0.044,0.009,-9.55,0.0,0.0,0.0,0.0,0.0,0.0,0.0,0.0,0.0
1581113103626200182,244,1581113103626061916,,0.859366072799,-0.00210522487184,-0.50892817185,0.860804103455,0.0,0.0,0.0,0.0,0.0,0.0,0.0,0.0,0.0,0.000907,2.8e-05,-0.001433,0.0,0.0,0.0,0.0,0.0,0.0,0.0,0.0,0.0,-0.061,0.026,-9.624,0.0,0.0,0.0,0.0,0.0,0.0,0.0,0.0,0.0
1581113103651274404,245,1581113103651168107,,0.859370530352,-0.00209327168635,-0.508928197824,0.860804110127,0.0,0.0,0.0,0.0,0.0,0.0,0.0,0.0,0.0,0.000231,-0.00056,0.001204,0.0,0.0,0.0,0.0,0.0,0.0,0.0,0.0,0.0,-0.039,0.012,-9.612,0.0,0.0,0.0,0.0,0.0,0.0,0.0,0.0,0.0
1581113103676008284,246,1581113103675868034,,0.859374987775,-0.00208884795049,-0.508920704119,0.860808533863,0.0,0.0,0.0,0.0,0.0,0.0,0.0,0.0,0.0,-0.001351,-0.000354,6.8e-05,0.0,0.0,0.0,0.0,0.0,0.0,0.0,0.0,0.0,-0.042,0.007,-9.62,0.0,0.0,0.0,0.0,0.0,0.0,0.0,0.0,0.0
1581113103701336663,247,1581113103701231956,,0.859343749854,-0.00208872544318,-0.508973286971,0.86077744406,0.0,0.0,0.0,0.0,0.0,0.0,0.0,0.0,0.0,-0.000878,0.000516,-6e-05,0.0,0.0,0.0,0.0,0.0,0.0,0.0,0.0,0.0,-0.058,0.008,-9.624,0.0,0.0,0.0,0.0,0.0,0.0,0.0,0.0,0.0
1581113103726280674,248,1581113103726170063,,0.859361600487,-0.00208879544831,-0.50894323986,0.860795210055,0.0,0.0,0.0,0.0,0.0,0.0,0.0,0.0,0.0,-0.000162,-0.000333,0.001371,0.0,0.0,0.0,0.0,0.0,0.0,0.0,0.0,0.0,-0.053,-0.002,-9.618,0.0,0.0,0.0,0.0,0.0,0.0,0.0,0.0,0.0
1581113103751621134,249,1581113103751480102,,0.859370530352,-0.00209327168635,-0.508928197824,0.860804110127,0.0,0.0,0.0,0.0,0.0,0.0,0.0,0.0,0.0,0.000799,0.000203,0.001208,0.0,0.0,0.0,0.0,0.0,0.0,0.0,0.0,0.0,-0.075,0.003,-9.596,0.0,0.0,0.0,0.0,0.0,0.0,0.0,0.0,0.0
1581113103777382386,250,1581113103777277946,,0.859352685118,-0.0020976434432,-0.508958226959,0.86078636206,0.0,0.0,0.0,0.0,0.0,0.0,0.0,0.0,0.0,0.000127,-0.000304,-0.001915,0.0,0.0,0.0,0.0,0.0,0.0,0.0,0.0,0.0,-0.036,0.011,-9.617,0.0,0.0,0.0,0.0,0.0,0.0,0.0,0.0,0.0
1581113103801341461,251,1581113103801234960,,0.859366067923,-0.00210078363563,-0.508928190202,0.860804086014,0.0,0.0,0.0,0.0,0.0,0.0,0.0,0.0,0.0,0.000344,-0.00047,0.002593,0.0,0.0,0.0,0.0,0.0,0.0,0.0,0.0,0.0,-0.024,0.009,-9.637,0.0,0.0,0.0,0.0,0.0,0.0,0.0,0.0,0.0
1581113103826036436,252,1581113103825931072,,0.859383917247,-0.00209332399091,-0.50890566185,0.860817433541,0.0,0.0,0.0,0.0,0.0,0.0,0.0,0.0,0.0,0.000377,0.001144,-0.000174,0.0,0.0,0.0,0.0,0.0,0.0,0.0,0.0,0.0,-0.062,0.004,-9.613,0.0,0.0,0.0,0.0,0.0,0.0,0.0,0.0,0.0
1581113103852126371,253,1581113103851986885,,0.859379450073,-0.00208886545089,-0.508913192128,0.860812975001,0.0,0.0,0.0,0.0,0.0,0.0,0.0,0.0,0.0,-0.000153,0.000975,0.002021,0.0,0.0,0.0,0.0,0.0,0.0,0.0,0.0,0.0,-0.056,0.02,-9.611,0.0,0.0,0.0,0.0,0.0,0.0,0.0,0.0,0.0
1581113103877306467,254,1581113103877198934,,0.859379455015,-0.00210083605645,-0.50890565423,0.860817409428,0.0,0.0,0.0,0.0,0.0,0.0,0.0,0.0,0.0,0.000759,-0.000925,0.001081,0.0,0.0,0.0,0.0,0.0,0.0,0.0,0.0,0.0,-0.064,0.015,-9.615,0.0,0.0,0.0,0.0,0.0,0.0,0.0,0.0,0.0
1581113103900891935,255,1581113103900789976,,0.859388379415,-0.00210087100287,-0.508890630054,0.860826291376,0.0,0.0,0.0,0.0,0.0,0.0,0.0,0.0,0.0,-0.000685,0.001154,0.003845,0.0,0.0,0.0,0.0,0.0,0.0,0.0,0.0,0.0,-0.055,0.008,-9.603,0.0,0.0,0.0,0.0,0.0,0.0,0.0,0.0,0.0
1581113103926790968,256,1581113103926652908,,0.859392841517,-0.00209335885982,-0.508890637674,0.86082631549,0.0,0.0,0.0,0.0,0.0,0.0,0.0,0.0,0.0,-0.000442,-0.000401,0.000528,0.0,0.0,0.0,0.0,0.0,0.0,0.0,0.0,0.0,-0.04,-0.006,-9.593,0.0,0.0,0.0,0.0,0.0,0.0,0.0,0.0,0.0
1581113103951357352,257,1581113103951229095,,0.859401760583,-0.00207389366445,-0.508890670916,0.860826346131,0.0,0.0,0.0,0.0,0.0,0.0,0.0,0.0,0.0,-0.000703,-0.000588,-0.00136,0.0,0.0,0.0,0.0,0.0,0.0,0.0,0.0,0.0,-0.057,0.021,-9.615,0.0,0.0,0.0,0.0,0.0,0.0,0.0,0.0,0.0
1581113103977584473,258,1581113103977405071,,0.859406217482,-0.00206194061184,-0.508890696368,0.860826352671,0.0,0.0,0.0,0.0,0.0,0.0,0.0,0.0,0.0,-0.000567,-0.000206,0.00172,0.0,0.0,0.0,0.0,0.0,0.0,0.0,0.0,0.0,-0.039,0.023,-9.609,0.0,0.0,0.0,0.0,0.0,0.0,0.0,0.0,0.0
1581113104001405993,259,1581113104001282930,,0.859401755577,-0.0020694527555,-0.508890688995,0.860826328676,0.0,0.0,0.0,0.0,0.0,0.0,0.0,0.0,0.0,0.000908,0.000133,0.00177,0.0,0.0,0.0,0.0,0.0,0.0,0.0,0.0,0.0,-0.065,0.012,-9.603,0.0,0.0,0.0,0.0,0.0,0.0,0.0,0.0,0.0
1581113104027787255,260,1581113104027661085,,0.859388364395,-0.00207248880522,-0.508905723864,0.860817405107,0.0,0.0,0.0,0.0,0.0,0.0,0.0,0.0,0.0,0.000132,0.000713,-0.001195,0.0,0.0,0.0,0.0,0.0,0.0,0.0,0.0,0.0,-0.056,0.007,-9.615,0.0,0.0,0.0,0.0,0.0,0.0,0.0,0.0,0.0
1581113104052225630,261,1581113104052054882,,0.859415136025,-0.00207259435752,-0.508860650873,0.860844050168,0.0,0.0,0.0,0.0,0.0,0.0,0.0,0.0,0.0,0.00027,0.000649,0.00281,0.0,0.0,0.0,0.0,0.0,0.0,0.0,0.0,0.0,-0.049,0.014,-9.586,0.0,0.0,0.0,0.0,0.0,0.0,0.0,0.0,0.0
1581113104077196911,262,1581113104077032089,,0.859424059378,-0.00206509961169,-0.508853145917,0.860848514882,0.0,0.0,0.0,0.0,0.0,0.0,0.0,0.0,0.0,-0.000263,-0.000115,8.7e-05,0.0,0.0,0.0,0.0,0.0,0.0,0.0,0.0,0.0,-0.044,0.028,-9.603,0.0,0.0,0.0,0.0,0.0,0.0,0.0,0.0,0.0
1581113104102719504,263,1581113104102557897,,0.859419587393,-0.00205620076471,-0.508860694183,0.860844039031,0.0,0.0,0.0,0.0,0.0,0.0,0.0,0.0,0.0,0.000415,0.001057,-0.000707,0.0,0.0,0.0,0.0,0.0,0.0,0.0,0.0,0.0,-0.043,0.014,-9.578,0.0,0.0,0.0,0.0,0.0,0.0,0.0,0.0,0.0
1581113104127324713,264,1581113104127203941,,0.859415130887,-0.00205309395354,-0.508875707947,0.860835199329,0.0,0.0,0.0,0.0,0.0,0.0,0.0,0.0,0.0,0.001244,-0.001325,0.000287,0.0,0.0,0.0,0.0,0.0,0.0,0.0,0.0,0.0,-0.036,0.021,-9.618,0.0,0.0,0.0,0.0,0.0,0.0,0.0,0.0,0.0
1581113104152394269,265,1581113104152287960,,0.859419592596,-0.00204558173209,-0.50887571515,0.860835223336,0.0,0.0,0.0,0.0,0.0,0.0,0.0,0.0,0.0,-0.000683,-2e-06,0.002186,0.0,0.0,0.0,0.0,0.0,0.0,0.0,0.0,0.0,-0.043,0.02,-9.598,0.0,0.0,0.0,0.0,0.0,0.0,0.0,0.0,0.0
1581113104176904045,266,1581113104176754951,,0.859432977331,-0.00205316427206,-0.50884565882,0.860852961918,0.0,0.0,0.0,0.0,0.0,0.0,0.0,0.0,0.0,0.000231,-0.001569,-0.000863,0.0,0.0,0.0,0.0,0.0,0.0,0.0,0.0,0.0,-0.054,0.003,-9.624,0.0,0.0,0.0,0.0,0.0,0.0,0.0,0.0,0.0
1581113104202208715,267,1581113104202097892,,0.859432977331,-0.00205316427206,-0.50884565882,0.860852961918,0.0,0.0,0.0,0.0,0.0,0.0,0.0,0.0,0.0,-0.000126,-0.000294,0.000478,0.0,0.0,0.0,0.0,0.0,0.0,0.0,0.0,0.0,-0.046,0.001,-9.582,0.0,0.0,0.0,0.0,0.0,0.0,0.0,0.0,0.0
1581113104227109081,268,1581113104226958036,,0.859432977331,-0.00205316427206,-0.50884565882,0.860852961918,0.0,0.0,0.0,0.0,0.0,0.0,0.0,0.0,0.0,-0.000559,-0.000761,-0.001438,0.0,0.0,0.0,0.0,0.0,0.0,0.0,0.0,0.0,-0.064,0.019,-9.601,0.0,0.0,0.0,0.0,0.0,0.0,0.0,0.0,0.0
1581113104252514403,269,1581113104252408981,,0.859432972128,-0.00204872375591,-0.508845676718,0.860852944306,0.0,0.0,0.0,0.0,0.0,0.0,0.0,0.0,0.0,-0.001639,-0.001555,0.001721,0.0,0.0,0.0,0.0,0.0,0.0,0.0,0.0,0.0,-0.042,0.023,-9.615,0.0,0.0,0.0,0.0,0.0,0.0,0.0,0.0,0.0
1581113104277296556,270,1581113104277164936,,0.859419587393,-0.00204867082059,-0.508868213621,0.860839622462,0.0,0.0,0.0,0.0,0.0,0.0,0.0,0.0,0.0,-0.000106,-0.000503,-0.000677,0.0,0.0,0.0,0.0,0.0,0.0,0.0,0.0,0.0,-0.071,0.007,-9.601,0.0,0.0,0.0,0.0,0.0,0.0,0.0,0.0,0.0
1581113104301875008,271,1581113104301769971,,0.859406202069,-0.00206367761772,-0.508875711454,0.860835133429,0.0,0.0,0.0,0.0,0.0,0.0,0.0,0.0,0.0,-0.00037,-0.001408,0.00162,0.0,0.0,0.0,0.0,0.0,0.0,0.0,0.0,0.0,-0.071,-0.01,-9.594,0.0,0.0,0.0,0.0,0.0,0.0,0.0,0.0,0.0
1581113104326808048,272,1581113104326704025,,0.859388354055,-0.00206360672445,-0.508905759958,0.860817369791,0.0,0.0,0.0,0.0,0.0,0.0,0.0,0.0,0.0,-5.8e-05,0.000743,-0.002597,0.0,0.0,0.0,0.0,0.0,0.0,0.0,0.0,0.0,-0.06,0.023,-9.608,0.0,0.0,0.0,0.0,0.0,0.0,0.0,0.0,0.0
1581113104352119154,273,1581113104351943016,,0.859401740164,-0.00206365989464,-0.508883223638,0.860830692617,0.0,0.0,0.0,0.0,0.0,0.0,0.0,0.0,0.0,0.000132,-0.000335,-0.003058,0.0,0.0,0.0,0.0,0.0,0.0,0.0,0.0,0.0,-0.062,-0.003,-9.596,0.0,0.0,0.0,0.0,0.0,0.0,0.0,0.0,0.0
1581113104376874641,274,1581113104376732110,,0.859388359257,-0.00206051807939,-0.508913261241,0.860812970546,0.0,0.0,0.0,0.0,0.0,0.0,0.0,0.0,0.0,7.6e-05,-3.3e-05,-0.0016,0.0,0.0,0.0,0.0,0.0,0.0,0.0,0.0,0.0,-0.063,0.018,-9.609,0.0,0.0,0.0,0.0,0.0,0.0,0.0,0.0,0.0
1581113104401745434,275,1581113104401649951,,0.859388359257,-0.00206051807939,-0.508913261241,0.860812970546,0.0,0.0,0.0,0.0,0.0,0.0,0.0,0.0,0.0,-0.000103,-0.000195,-0.000382,0.0,0.0,0.0,0.0,0.0,0.0,0.0,0.0,0.0,-0.053,0.009,-9.599,0.0,0.0,0.0,0.0,0.0,0.0,0.0,0.0,0.0
1581113104427905203,276,1581113104427711963,,0.859406207272,-0.00206058855606,-0.50888321289,0.860830734446,0.0,0.0,0.0,0.0,0.0,0.0,0.0,0.0,0.0,0.000257,-0.000513,0.003631,0.0,0.0,0.0,0.0,0.0,0.0,0.0,0.0,0.0,-0.046,0.025,-9.607,0.0,0.0,0.0,0.0,0.0,0.0,0.0,0.0,0.0
1581113104452155797,277,1581113104451930046,,0.859397283396,-0.00205302363252,-0.508905756454,0.860817435691,0.0,0.0,0.0,0.0,0.0,0.0,0.0,0.0,0.0,0.000446,-5.6e-05,-0.001039,0.0,0.0,0.0,0.0,0.0,0.0,0.0,0.0,0.0,-0.048,0.014,-9.603,0.0,0.0,0.0,0.0,0.0,0.0,0.0,0.0,0.0
1581113104476983174,278,1581113104476845026,,0.859410669113,-0.00205307637352,-0.508883220132,0.860830758518,0.0,0.0,0.0,0.0,0.0,0.0,0.0,0.0,0.0,-0.000716,0.000486,-0.002284,0.0,0.0,0.0,0.0,0.0,0.0,0.0,0.0,0.0,-0.072,-0.016,-9.609,0.0,0.0,0.0,0.0,0.0,0.0,0.0,0.0,0.0
1581113104501763402,279,1581113104501662015,,0.859410663909,-0.00205616539652,-0.508875718668,0.860835157605,0.0,0.0,0.0,0.0,0.0,0.0,0.0,0.0,0.0,-0.002112,-0.00051,0.002229,0.0,0.0,0.0,0.0,0.0,0.0,0.0,0.0,0.0,-0.04,0.015,-9.637,0.0,0.0,0.0,0.0,0.0,0.0,0.0,0.0,0.0
1581113104526953001,280,1581113104526850938,,0.859410663909,-0.00205616539652,-0.508875718668,0.860835157605,0.0,0.0,0.0,0.0,0.0,0.0,0.0,0.0,0.0,-0.000647,-0.000695,0.000483,0.0,0.0,0.0,0.0,0.0,0.0,0.0,0.0,0.0,-0.071,0.014,-9.607,0.0,0.0,0.0,0.0,0.0,0.0,0.0,0.0,0.0
1581113104551914167,281,1581113104551773071,,0.859415125684,-0.0020561830807,-0.508868206445,0.860839598351,0.0,0.0,0.0,0.0,0.0,0.0,0.0,0.0,0.0,-0.000645,-0.000677,-0.002813,0.0,0.0,0.0,0.0,0.0,0.0,0.0,0.0,0.0,-0.054,0.023,-9.596,0.0,0.0,0.0,0.0,0.0,0.0,0.0,0.0,0.0
1581113104576868164,282,1581113104576725006,,0.859419582125,-0.0020592902043,-0.508853192658,0.860848437713,0.0,0.0,0.0,0.0,0.0,0.0,0.0,0.0,0.0,0.000234,0.000167,-0.001794,0.0,0.0,0.0,0.0,0.0,0.0,0.0,0.0,0.0,-0.062,0.004,-9.602,0.0,0.0,0.0,0.0,0.0,0.0,0.0,0.0,0.0
1581113104602029541,283,1581113104601891994,,0.859419582125,-0.00206682036842,-0.508845673132,0.860852853981,0.0,0.0,0.0,0.0,0.0,0.0,0.0,0.0,0.0,-0.000778,0.000946,0.000533,0.0,0.0,0.0,0.0,0.0,0.0,0.0,0.0,0.0,-0.035,0.004,-9.617,0.0,0.0,0.0,0.0,0.0,0.0,0.0,0.0,0.0
1581113104627814576,284,1581113104627505064,,0.859419582125,-0.00206682036842,-0.508845673132,0.860852853981,0.0,0.0,0.0,0.0,0.0,0.0,0.0,0.0,0.0,-0.000243,-0.001035,-0.001172,0.0,0.0,0.0,0.0,0.0,0.0,0.0,0.0,0.0,-0.053,0.017,-9.599,0.0,0.0,0.0,0.0,0.0,0.0,0.0,0.0,0.0
1581113104652005029,285,1581113104651860952,,0.859424043768,-0.00206683819503,-0.508838160754,0.860857294464,0.0,0.0,0.0,0.0,0.0,0.0,0.0,0.0,0.0,-5e-06,0.000614,-0.002362,0.0,0.0,0.0,0.0,0.0,0.0,0.0,0.0,0.0,-0.03,0.011,-9.595,0.0,0.0,0.0,0.0,0.0,0.0,0.0,0.0,0.0
1581113104677181518,286,1581113104676995038,,0.859419571391,-0.00205040904036,-0.508853228522,0.860848402006,0.0,0.0,0.0,0.0,0.0,0.0,0.0,0.0,0.0,0.000305,-0.001411,0.000655,0.0,0.0,0.0,0.0,0.0,0.0,0.0,0.0,0.0,-0.069,0.03,-9.6,0.0,0.0,0.0,0.0,0.0,0.0,0.0,0.0,0.0
1581113104701881786,287,1581113104701777935,,0.859401718697,-0.00204589651786,-0.508883295363,0.8608306212,0.0,0.0,0.0,0.0,0.0,0.0,0.0,0.0,0.0,-0.001781,-0.001585,-0.001226,0.0,0.0,0.0,0.0,0.0,0.0,0.0,0.0,0.0,-0.037,0.024,-9.598,0.0,0.0,0.0,0.0,0.0,0.0,0.0,0.0,0.0
1581113104727485990,288,1581113104727372884,,0.859401718697,-0.00204589651786,-0.508883295363,0.8608306212,0.0,0.0,0.0,0.0,0.0,0.0,0.0,0.0,0.0,-0.000272,-0.000807,0.000713,0.0,0.0,0.0,0.0,0.0,0.0,0.0,0.0,0.0,-0.035,0.008,-9.582,0.0,0.0,0.0,0.0,0.0,0.0,0.0,0.0,0.0
1581113104752502933,289,1581113104752370119,,0.859397256726,-0.0020458785324,-0.508890807508,0.860826180323,0.0,0.0,0.0,0.0,0.0,0.0,0.0,0.0,0.0,-0.000596,-0.000708,0.001481,0.0,0.0,0.0,0.0,0.0,0.0,0.0,0.0,0.0,-0.05,0.001,-9.61,0.0,0.0,0.0,0.0,0.0,0.0,0.0,0.0,0.0
1581113104777346554,290,1581113104777235984,,0.859401724162,-0.00205033736229,-0.50888327749,0.860830639153,0.0,0.0,0.0,0.0,0.0,0.0,0.0,0.0,0.0,0.000844,-0.0005,-0.000117,0.0,0.0,0.0,0.0,0.0,0.0,0.0,0.0,0.0,-0.057,-0.012,-9.604,0.0,0.0,0.0,0.0,0.0,0.0,0.0,0.0,0.0
1581113104801921474,291,1581113104801815032,,0.859406186067,-0.00205035528204,-0.508875765306,0.860835079965,0.0,0.0,0.0,0.0,0.0,0.0,0.0,0.0,0.0,-0.001749,-0.000385,-0.00041,0.0,0.0,0.0,0.0,0.0,0.0,0.0,0.0,0.0,-0.079,0.016,-9.638,0.0,0.0,0.0,0.0,0.0,0.0,0.0,0.0,0.0
1581113104826848150,292,1581113104826744079,,0.85939726759,-0.00205476035221,-0.508890771723,0.860826216163,0.0,0.0,0.0,0.0,0.0,0.0,0.0,0.0,0.0,0.000506,-0.000529,-0.002284,0.0,0.0,0.0,0.0,0.0,0.0,0.0,0.0,0.0,-0.069,0.003,-9.629,0.0,0.0,0.0,0.0,0.0,0.0,0.0,0.0,0.0
1581113104852027606,293,1581113104851924896,,0.859392805554,-0.0020547424977,-0.50889828383,0.860821775221,0.0,0.0,0.0,0.0,0.0,0.0,0.0,0.0,0.0,-0.000165,9.7e-05,-0.002475,0.0,0.0,0.0,0.0,0.0,0.0,0.0,0.0,0.0,-0.046,0.002,-9.6,0.0,0.0,0.0,0.0,0.0,0.0,0.0,0.0,0.0
1581113104877157622,294,1581113104877007961,,0.85939726759,-0.00204723039264,-0.508898290914,0.860821799475,0.0,0.0,0.0,0.0,0.0,0.0,0.0,0.0,0.0,-0.000536,0.00041,-0.003407,0.0,0.0,0.0,0.0,0.0,0.0,0.0,0.0,0.0,-0.061,0.017,-9.61,0.0,0.0,0.0,0.0,0.0,0.0,0.0,0.0,0.0
1581113104902073269,295,1581113104901959896,,0.859415109682,-0.00203533083912,-0.508875779303,0.860835128485,0.0,0.0,0.0,0.0,0.0,0.0,0.0,0.0,0.0,-0.000976,-0.000671,-0.001018,0.0,0.0,0.0,0.0,0.0,0.0,0.0,0.0,0.0,-0.06,0.0,-9.634,0.0,0.0,0.0,0.0,0.0,0.0,0.0,0.0,0.0
1581113104927070522,296,1581113104926948070,,0.859401729561,-0.00205477820656,-0.508883259578,0.86083065704,0.0,0.0,0.0,0.0,0.0,0.0,0.0,0.0,0.0,0.000217,0.000177,0.000741,0.0,0.0,0.0,0.0,0.0,0.0,0.0,0.0,0.0,-0.055,0.013,-9.614,0.0,0.0,0.0,0.0,0.0,0.0,0.0,0.0,0.0
1581113104951871516,297,1581113104951766014,,0.859424033035,-0.00203536652314,-0.508860754819,0.860844009912,0.0,0.0,0.0,0.0,0.0,0.0,0.0,0.0,0.0,-0.000148,-0.000473,-0.000834,0.0,0.0,0.0,0.0,0.0,0.0,0.0,0.0,0.0,-0.053,0.01,-9.589,0.0,0.0,0.0,0.0,0.0,0.0,0.0,0.0,0.0
1581113104977480941,298,1581113104977353096,,0.859424033035,-0.00203536652314,-0.508860754819,0.860844009912,0.0,0.0,0.0,0.0,0.0,0.0,0.0,0.0,0.0,-3.6e-05,-0.001353,-0.001563,0.0,0.0,0.0,0.0,0.0,0.0,0.0,0.0,0.0,-0.049,0.02,-9.592,0.0,0.0,0.0,0.0,0.0,0.0,0.0,0.0,0.0
1581113105002205471,299,1581113105002060890,,0.859428489148,-0.002023413576,-0.508860779436,0.860844016238,0.0,0.0,0.0,0.0,0.0,0.0,0.0,0.0,0.0,-0.000291,-0.000302,-0.001163,0.0,0.0,0.0,0.0,0.0,0.0,0.0,0.0,0.0,-0.038,0.002,-9.596,0.0,0.0,0.0,0.0,0.0,0.0,0.0,0.0,0.0
1581113105027204684,300,1581113105027051925,,0.859428489148,-0.002023413576,-0.508860779436,0.860844016238,0.0,0.0,0.0,0.0,0.0,0.0,0.0,0.0,0.0,-0.000169,-0.00064,-0.00023,0.0,0.0,0.0,0.0,0.0,0.0,0.0,0.0,0.0,-0.03,0.003,-9.633,0.0,0.0,0.0,0.0,0.0,0.0,0.0,0.0,0.0
1581113105052026577,301,1581113105051902055,,0.859424033035,-0.00202030639557,-0.508875793145,0.860835176743,0.0,0.0,0.0,0.0,0.0,0.0,0.0,0.0,0.0,-9e-06,0.000305,0.002103,0.0,0.0,0.0,0.0,0.0,0.0,0.0,0.0,0.0,-0.037,0.027,-9.622,0.0,0.0,0.0,0.0,0.0,0.0,0.0,0.0,0.0
1581113105076871361,302,1581113105076719999,,0.859428489148,-0.00200835339439,-0.508875817554,0.860835183015,0.0,0.0,0.0,0.0,0.0,0.0,0.0,0.0,0.0,-0.000622,-4.9e-05,0.003938,0.0,0.0,0.0,0.0,0.0,0.0,0.0,0.0,0.0,-0.028,0.03,-9.583,0.0,0.0,0.0,0.0,0.0,0.0,0.0,0.0,0.0
1581113105103057603,303,1581113105102920055,,0.859432950661,-0.00200837118578,-0.50886830533,0.860839623761,0.0,0.0,0.0,0.0,0.0,0.0,0.0,0.0,0.0,3e-06,-0.000968,0.000446,0.0,0.0,0.0,0.0,0.0,0.0,0.0,0.0,0.0,-0.028,-0.001,-9.603,0.0,0.0,0.0,0.0,0.0,0.0,0.0,0.0,0.0
1581113105127177069,304,1581113105127038955,,0.859441878955,-0.00199778737742,-0.508868301394,0.860839689385,0.0,0.0,0.0,0.0,0.0,0.0,0.0,0.0,0.0,-0.000159,-0.001311,0.000819,0.0,0.0,0.0,0.0,0.0,0.0,0.0,0.0,0.0,-0.065,0.003,-9.605,0.0,0.0,0.0,0.0,0.0,0.0,0.0,0.0,0.0
1581113105152228318,305,1581113105152086019,,0.859450801522,-0.00199782267362,-0.508853276829,0.860848570681,0.0,0.0,0.0,0.0,0.0,0.0,0.0,0.0,0.0,-0.001381,0.000102,-0.001964,0.0,0.0,0.0,0.0,0.0,0.0,0.0,0.0,0.0,-0.045,0.009,-9.581,0.0,0.0,0.0,0.0,0.0,0.0,0.0,0.0,0.0
1581113105177107081,306,1581113105176958084,,0.859432956126,-0.00200528195141,-0.508875806833,0.860835224739,0.0,0.0,0.0,0.0,0.0,0.0,0.0,0.0,0.0,0.000826,0.000192,-0.001999,0.0,0.0,0.0,0.0,0.0,0.0,0.0,0.0,0.0,-0.06,0.008,-9.609,0.0,0.0,0.0,0.0,0.0,0.0,0.0,0.0,0.0
1581113105201815811,307,1581113105201713085,,0.859428494613,-0.00201279417357,-0.508875800008,0.860835200774,0.0,0.0,0.0,0.0,0.0,0.0,0.0,0.0,0.0,-0.000395,-0.000356,0.001981,0.0,0.0,0.0,0.0,0.0,0.0,0.0,0.0,0.0,-0.049,-0.005,-9.606,0.0,0.0,0.0,0.0,0.0,0.0,0.0,0.0,0.0
1581113105227555865,308,1581113105227448940,,0.859432961525,-0.00201725261286,-0.5088682702,0.860839659213,0.0,0.0,0.0,0.0,0.0,0.0,0.0,0.0,0.0,0.000439,-0.000376,3.6e-05,0.0,0.0,0.0,0.0,0.0,0.0,0.0,0.0,0.0,-0.052,0.02,-9.605,0.0,0.0,0.0,0.0,0.0,0.0,0.0,0.0,0.0
1581113105252297658,309,1581113105252188920,,0.859428500013,-0.00202476487356,-0.508868263272,0.860839635221,0.0,0.0,0.0,0.0,0.0,0.0,0.0,0.0,0.0,-9.5e-05,-0.000227,-0.001673,0.0,0.0,0.0,0.0,0.0,0.0,0.0,0.0,0.0,-0.065,0.004,-9.59,0.0,0.0,0.0,0.0,0.0,0.0,0.0,0.0,0.0
1581113105277420467,310,1581113105277292966,,0.859437422973,-0.00203233034652,-0.508845719402,0.860852933008,0.0,0.0,0.0,0.0,0.0,0.0,0.0,0.0,0.0,-0.000294,-0.001018,-0.000968,0.0,0.0,0.0,0.0,0.0,0.0,0.0,0.0,0.0,-0.061,0.004,-9.618,0.0,0.0,0.0,0.0,0.0,0.0,0.0,0.0,0.0
1581113105302187163,311,1581113105301995038,,0.859410653307,-0.00203222392029,-0.508890792859,0.860826288729,0.0,0.0,0.0,0.0,0.0,0.0,0.0,0.0,0.0,0.000569,-0.000477,-0.00283,0.0,0.0,0.0,0.0,0.0,0.0,0.0,0.0,0.0,-0.037,0.014,-9.61,0.0,0.0,0.0,0.0,0.0,0.0,0.0,0.0,0.0
1581113105326903821,312,1581113105326747894,,0.859415120415,-0.00203668250268,-0.508883262959,0.860830747311,0.0,0.0,0.0,0.0,0.0,0.0,0.0,0.0,0.0,0.000436,-0.000773,0.000433,0.0,0.0,0.0,0.0,0.0,0.0,0.0,0.0,0.0,-0.053,0.019,-9.575,0.0,0.0,0.0,0.0,0.0,0.0,0.0,0.0,0.0
1581113105351998897,313,1581113105351892948,,0.859424038434,-0.00203980717087,-0.508860737037,0.860844027721,0.0,0.0,0.0,0.0,0.0,0.0,0.0,0.0,0.0,-0.00047,-0.000979,-0.00262,0.0,0.0,0.0,0.0,0.0,0.0,0.0,0.0,0.0,-0.067,-0.002,-9.614,0.0,0.0,0.0,0.0,0.0,0.0,0.0,0.0,0.0
1581113105377270066,314,1581113105377161026,,0.85939726759,-0.00204723039264,-0.508898290914,0.860821799475,0.0,0.0,0.0,0.0,0.0,0.0,0.0,0.0,0.0,0.000898,0.000687,0.001559,0.0,0.0,0.0,0.0,0.0,0.0,0.0,0.0,0.0,-0.057,0.024,-9.613,0.0,0.0,0.0,0.0,0.0,0.0,0.0,0.0,0.0
1581113105402195908,315,1581113105402046918,,0.859401729561,-0.00203971828742,-0.508898297959,0.860821823663,0.0,0.0,0.0,0.0,0.0,0.0,0.0,0.0,0.0,-0.000217,-0.000373,0.00099,0.0,0.0,0.0,0.0,0.0,0.0,0.0,0.0,0.0,-0.044,0.016,-9.596,0.0,0.0,0.0,0.0,0.0,0.0,0.0,0.0,0.0
1581113105427861183,316,1581113105427750110,,0.859401729561,-0.00204724820839,-0.508890778807,0.860826240417,0.0,0.0,0.0,0.0,0.0,0.0,0.0,0.0,0.0,0.000457,-0.000498,0.001453,0.0,0.0,0.0,0.0,0.0,0.0,0.0,0.0,0.0,-0.038,0.006,-9.597,0.0,0.0,0.0,0.0,0.0,0.0,0.0,0.0,0.0
1581113105463408331,317,1581113105463027000,,0.859401729561,-0.00203971828742,-0.508898297959,0.860821823663,0.0,0.0,0.0,0.0,0.0,0.0,0.0,0.0,0.0,-0.000384,-0.000759,0.001698,0.0,0.0,0.0,0.0,0.0,0.0,0.0,0.0,0.0,-0.044,0.02,-9.588,0.0,0.0,0.0,0.0,0.0,0.0,0.0,0.0,0.0
1581113105477908855,318,1581113105477777957,,0.859410653307,-0.00204728383944,-0.508875754478,0.860835122106,0.0,0.0,0.0,0.0,0.0,0.0,0.0,0.0,0.0,0.000567,0.000989,-0.001828,0.0,0.0,0.0,0.0,0.0,0.0,0.0,0.0,0.0,-0.064,0.046,-9.614,0.0,0.0,0.0,0.0,0.0,0.0,0.0,0.0,0.0
1581113105502239536,319,1581113105502044916,,0.859428505347,-0.0020442655291,-0.508853206916,0.860848486079,0.0,0.0,0.0,0.0,0.0,0.0,0.0,0.0,0.0,0.000673,0.000192,0.001579,0.0,0.0,0.0,0.0,0.0,0.0,0.0,0.0,0.0,-0.055,0.014,-9.642,0.0,0.0,0.0,0.0,0.0,0.0,0.0,0.0,0.0
1581113105529722878,320,1581113105529452085,,0.859428500013,-0.00203982494709,-0.508853224737,0.860848468336,0.0,0.0,0.0,0.0,0.0,0.0,0.0,0.0,0.0,0.000893,-0.001371,0.002277,0.0,0.0,0.0,0.0,0.0,0.0,0.0,0.0,0.0,-0.038,0.015,-9.615,0.0,0.0,0.0,0.0,0.0,0.0,0.0,0.0,0.0
1581113105552820174,321,1581113105552699089,,0.859441884355,-0.00203987827483,-0.508830687602,0.860861789787,0.0,0.0,0.0,0.0,0.0,0.0,0.0,0.0,0.0,-0.000124,-0.000494,3.7e-05,0.0,0.0,0.0,0.0,0.0,0.0,0.0,0.0,0.0,-0.041,0.022,-9.593,0.0,0.0,0.0,0.0,0.0,0.0,0.0,0.0,0.0
1581113105577027489,322,1581113105576858043,,0.859424033035,-0.00202783642076,-0.508868274021,0.860839593393,0.0,0.0,0.0,0.0,0.0,0.0,0.0,0.0,0.0,-0.001599,-0.000287,-0.001889,0.0,0.0,0.0,0.0,0.0,0.0,0.0,0.0,0.0,-0.041,0.021,-9.605,0.0,0.0,0.0,0.0,0.0,0.0,0.0,0.0,0.0
1581113105611604261,323,1581113105611331939,,0.859437422973,-0.00203233034652,-0.508845719402,0.860852933008,0.0,0.0,0.0,0.0,0.0,0.0,0.0,0.0,0.0,0.000586,0.000858,-0.000514,0.0,0.0,0.0,0.0,0.0,0.0,0.0,0.0,0.0,-0.048,-0.009,-9.624,0.0,0.0,0.0,0.0,0.0,0.0,0.0,0.0,0.0
1581113105627726898,324,1581113105627589941,,0.859450806922,-0.00203238355754,-0.508823182151,0.860866254263,0.0,0.0,0.0,0.0,0.0,0.0,0.0,0.0,0.0,-0.000124,-0.000761,0.001432,0.0,0.0,0.0,0.0,0.0,0.0,0.0,0.0,0.0,-0.053,0.028,-9.597,0.0,0.0,0.0,0.0,0.0,0.0,0.0,0.0,0.0
1581113105652180441,325,1581113105652039051,,0.859437417573,-0.00202788982985,-0.508845737118,0.860852915238,0.0,0.0,0.0,0.0,0.0,0.0,0.0,0.0,0.0,-0.000251,0.000255,-0.001478,0.0,0.0,0.0,0.0,0.0,0.0,0.0,0.0,0.0,-0.065,0.011,-9.603,0.0,0.0,0.0,0.0,0.0,0.0,0.0,0.0,0.0
1581113105677057060,326,1581113105676956892,,0.859450801522,-0.00202794323754,-0.508823199867,0.860866236493,0.0,0.0,0.0,0.0,0.0,0.0,0.0,0.0,0.0,0.001282,-0.00078,0.003191,0.0,0.0,0.0,0.0,0.0,0.0,0.0,0.0,0.0,-0.06,0.006,-9.57,0.0,0.0,0.0,0.0,0.0,0.0,0.0,0.0,0.0
1581113105717657374,327,1581113105717411041,,0.859428494613,-0.00202785422394,-0.508860761759,0.860844034074,0.0,0.0,0.0,0.0,0.0,0.0,0.0,0.0,0.0,-0.001375,0.000529,-0.002703,0.0,0.0,0.0,0.0,0.0,0.0,0.0,0.0,0.0,-0.064,0.025,-9.609,0.0,0.0,0.0,0.0,0.0,0.0,0.0,0.0,0.0
1581113105728364264,328,1581113105728209972,,0.859415109682,-0.00203533083912,-0.508875779303,0.860835128485,0.0,0.0,0.0,0.0,0.0,0.0,0.0,0.0,0.0,-0.000801,-0.000595,-6.5e-05,0.0,0.0,0.0,0.0,0.0,0.0,0.0,0.0,0.0,-0.039,0.017,-9.625,0.0,0.0,0.0,0.0,0.0,0.0,0.0,0.0,0.0
1581113105752374116,329,1581113105752273082,,0.859419565926,-0.00203843817437,-0.508860765648,0.860843967771,0.0,0.0,0.0,0.0,0.0,0.0,0.0,0.0,0.0,0.000286,-0.000687,-0.001327,0.0,0.0,0.0,0.0,0.0,0.0,0.0,0.0,0.0,-0.056,0.01,-9.616,0.0,0.0,0.0,0.0,0.0,0.0,0.0,0.0,0.0
1581113105777077240,330,1581113105776966094,,0.859397256726,-0.0020458785324,-0.508890807508,0.860826180323,0.0,0.0,0.0,0.0,0.0,0.0,0.0,0.0,0.0,3.3e-05,-0.000574,0.001321,0.0,0.0,0.0,0.0,0.0,0.0,0.0,0.0,0.0,-0.068,0.004,-9.624,0.0,0.0,0.0,0.0,0.0,0.0,0.0,0.0,0.0
1581113105802176618,331,1581113105801959037,,0.859406186067,-0.00205788546162,-0.508868246027,0.860839496352,0.0,0.0,0.0,0.0,0.0,0.0,0.0,0.0,0.0,-0.000451,0.000409,0.001929,0.0,0.0,0.0,0.0,0.0,0.0,0.0,0.0,0.0,-0.041,0.026,-9.614,0.0,0.0,0.0,0.0,0.0,0.0,0.0,0.0,0.0
1581113105827533408,332,1581113105827419042,,0.859415098687,-0.00204904021341,-0.508853257306,0.8608483416,0.0,0.0,0.0,0.0,0.0,0.0,0.0,0.0,0.0,-0.000434,-0.001147,-0.002519,0.0,0.0,0.0,0.0,0.0,0.0,0.0,0.0,0.0,-0.051,0.012,-9.581,0.0,0.0,0.0,0.0,0.0,0.0,0.0,0.0,0.0
1581113105852360748,333,1581113105852246046,,0.859419560396,-0.0020415278758,-0.508853264231,0.860848366036,0.0,0.0,0.0,0.0,0.0,0.0,0.0,0.0,0.0,0.000376,-0.000195,0.000762,0.0,0.0,0.0,0.0,0.0,0.0,0.0,0.0,0.0,-0.063,0.012,-9.613,0.0,0.0,0.0,0.0,0.0,0.0,0.0,0.0,0.0
1581113105877617578,334,1581113105877506017,,0.859410636912,-0.00204149177485,-0.508868288792,0.86083948474,0.0,0.0,0.0,0.0,0.0,0.0,0.0,0.0,0.0,-0.001522,-0.000497,0.000301,0.0,0.0,0.0,0.0,0.0,0.0,0.0,0.0,0.0,-0.035,0.024,-9.604,0.0,0.0,0.0,0.0,0.0,0.0,0.0,0.0,0.0
1581113105902340486,335,1581113105902221918,,0.859415093091,-0.00204459963096,-0.508853275168,0.860848323478,0.0,0.0,0.0,0.0,0.0,0.0,0.0,0.0,0.0,-0.000888,-0.001569,-0.000713,0.0,0.0,0.0,0.0,0.0,0.0,0.0,0.0,0.0,-0.063,0.006,-9.621,0.0,0.0,0.0,0.0,0.0,0.0,0.0,0.0,0.0
1581113105927199580,336,1581113105927037000,,0.859406175072,-0.00204900403496,-0.508868281867,0.860839460304,0.0,0.0,0.0,0.0,0.0,0.0,0.0,0.0,0.0,1.6e-05,0.001338,0.001365,0.0,0.0,0.0,0.0,0.0,0.0,0.0,0.0,0.0,-0.042,0.016,-9.603,0.0,0.0,0.0,0.0,0.0,0.0,0.0,0.0,0.0
1581113105952194138,337,1581113105952032089,,0.859406175072,-0.00204147372414,-0.508875801014,0.860835043994,0.0,0.0,0.0,0.0,0.0,0.0,0.0,0.0,0.0,-5.3e-05,-0.000199,0.000664,0.0,0.0,0.0,0.0,0.0,0.0,0.0,0.0,0.0,-0.045,0.027,-9.57,0.0,0.0,0.0,0.0,0.0,0.0,0.0,0.0,0.0
1581113105978568408,338,1581113105978430032,,0.859419565926,-0.00203843817437,-0.508860765648,0.860843967771,0.0,0.0,0.0,0.0,0.0,0.0,0.0,0.0,0.0,0.001194,0.000306,0.000776,0.0,0.0,0.0,0.0,0.0,0.0,0.0,0.0,0.0,-0.039,-0.013,-9.59,0.0,0.0,0.0,0.0,0.0,0.0,0.0,0.0,0.0
1581113106002400039,339,1581113106002276897,,0.859424022039,-0.00203401553804,-0.508853271117,0.860848390407,0.0,0.0,0.0,0.0,0.0,0.0,0.0,0.0,0.0,-0.00042,0.000314,-0.000927,0.0,0.0,0.0,0.0,0.0,0.0,0.0,0.0,0.0,-0.054,0.016,-9.582,0.0,0.0,0.0,0.0,0.0,0.0,0.0,0.0,0.0
1581113106028559843,340,1581113106028450965,,0.859415098687,-0.00204150982541,-0.508860776531,0.860843925421,0.0,0.0,0.0,0.0,0.0,0.0,0.0,0.0,0.0,3e-06,-0.000419,-0.002758,0.0,0.0,0.0,0.0,0.0,0.0,0.0,0.0,0.0,-0.027,0.01,-9.65,0.0,0.0,0.0,0.0,0.0,0.0,0.0,0.0,0.0
1581113106053206381,341,1581113106053045034,,0.859397256726,-0.0020458785324,-0.508890807508,0.860826180323,0.0,0.0,0.0,0.0,0.0,0.0,0.0,0.0,0.0,-0.000484,-0.000879,-0.002492,0.0,0.0,0.0,0.0,0.0,0.0,0.0,0.0,0.0,-0.05,0.0,-9.588,0.0,0.0,0.0,0.0,0.0,0.0,0.0,0.0,0.0
1581113106078093115,342,1581113106077915906,,0.859410642443,-0.00204593248832,-0.508868270957,0.860839502758,0.0,0.0,0.0,0.0,0.0,0.0,0.0,0.0,0.0,-0.001912,-0.000179,0.001498,0.0,0.0,0.0,0.0,0.0,0.0,0.0,0.0,0.0,-0.031,0.016,-9.598,0.0,0.0,0.0,0.0,0.0,0.0,0.0,0.0,0.0
1581113106102608290,343,1581113106102462053,,0.859410647907,-0.00205037320164,-0.508868253084,0.860839520711,0.0,0.0,0.0,0.0,0.0,0.0,0.0,0.0,0.0,0.002111,0.000254,-0.000156,0.0,0.0,0.0,0.0,0.0,0.0,0.0,0.0,0.0,-0.077,0.015,-9.627,0.0,0.0,0.0,0.0,0.0,0.0,0.0,0.0,0.0
1581113106128519282,344,1581113106128401041,,0.859401718697,-0.00205342672446,-0.508875776189,0.860835037615,0.0,0.0,0.0,0.0,0.0,0.0,0.0,0.0,0.0,-0.000221,0.000541,-0.000742,0.0,0.0,0.0,0.0,0.0,0.0,0.0,0.0,0.0,-0.059,0.015,-9.604,0.0,0.0,0.0,0.0,0.0,0.0,0.0,0.0,0.0
1581113106153336115,345,1581113106153181076,,0.859397262191,-0.00205784954477,-0.508883270433,0.860830614795,0.0,0.0,0.0,0.0,0.0,0.0,0.0,0.0,0.0,-0.001079,0.000708,4.4e-05,0.0,0.0,0.0,0.0,0.0,0.0,0.0,0.0,0.0,-0.081,0.016,-9.611,0.0,0.0,0.0,0.0,0.0,0.0,0.0,0.0,0.0
1581113106178213018,346,1581113106178040981,,0.859388338053,-0.00205781362729,-0.508898294684,0.860821732975,0.0,0.0,0.0,0.0,0.0,0.0,0.0,0.0,0.0,0.000304,-0.000346,0.000883,0.0,0.0,0.0,0.0,0.0,0.0,0.0,0.0,0.0,-0.051,0.02,-9.61,0.0,0.0,0.0,0.0,0.0,0.0,0.0,0.0,0.0
1581113106202188895,347,1581113106202020883,,0.859388338053,-0.00205781362729,-0.508898294684,0.860821732975,0.0,0.0,0.0,0.0,0.0,0.0,0.0,0.0,0.0,0.000208,-0.000609,-0.0015,0.0,0.0,0.0,0.0,0.0,0.0,0.0,0.0,0.0,-0.059,0.01,-9.615,0.0,0.0,0.0,0.0,0.0,0.0,0.0,0.0,0.0
1581113106229237099,348,1581113106229046106,,0.859406186067,-0.00205788546162,-0.508868246027,0.860839496352,0.0,0.0,0.0,0.0,0.0,0.0,0.0,0.0,0.0,0.000888,0.001113,0.002795,0.0,0.0,0.0,0.0,0.0,0.0,0.0,0.0,0.0,-0.03,-0.008,-9.605,0.0,0.0,0.0,0.0,0.0,0.0,0.0,0.0,0.0
1581113106253787595,349,1581113106253675937,,0.859406186067,-0.00205788546162,-0.508868246027,0.860839496352,0.0,0.0,0.0,0.0,0.0,0.0,0.0,0.0,0.0,-0.001082,0.000479,0.000843,0.0,0.0,0.0,0.0,0.0,0.0,0.0,0.0,0.0,-0.062,0.001,-9.584,0.0,0.0,0.0,0.0,0.0,0.0,0.0,0.0,0.0
1581113106278351438,350,1581113106278229951,,0.859406180603,-0.00206850547033,-0.508853225308,0.860848310665,0.0,0.0,0.0,0.0,0.0,0.0,0.0,0.0,0.0,0.001302,-0.000575,0.001731,0.0,0.0,0.0,0.0,0.0,0.0,0.0,0.0,0.0,-0.054,-0.007,-9.582,0.0,0.0,0.0,0.0,0.0,0.0,0.0,0.0,0.0
1581113106303242647,351,1581113106303072929,,0.85937049439,-0.00209230302066,-0.508898247828,0.860821652967,0.0,0.0,0.0,0.0,0.0,0.0,0.0,0.0,0.0,0.000697,-0.000931,0.001863,0.0,0.0,0.0,0.0,0.0,0.0,0.0,0.0,0.0,-0.05,0.001,-9.602,0.0,0.0,0.0,0.0,0.0,0.0,0.0,0.0,0.0
1581113106328100763,352,1581113106327930927,,0.859383881285,-0.00208482693528,-0.508883230856,0.860830559368,0.0,0.0,0.0,0.0,0.0,0.0,0.0,0.0,0.0,3.4e-05,0.000208,-0.00238,0.0,0.0,0.0,0.0,0.0,0.0,0.0,0.0,0.0,-0.027,0.013,-9.6,0.0,0.0,0.0,0.0,0.0,0.0,0.0,0.0,0.0
1581113106353212615,353,1581113106353048086,,0.859379419052,-0.00208480892591,-0.508890743,0.860826118491,0.0,0.0,0.0,0.0,0.0,0.0,0.0,0.0,0.0,0.000483,-0.000137,-0.002816,0.0,0.0,0.0,0.0,0.0,0.0,0.0,0.0,0.0,-0.04,0.0,-9.586,0.0,0.0,0.0,0.0,0.0,0.0,0.0,0.0,0.0
1581113106378416522,354,1581113106378297090,,0.85939726759,-0.00208488096243,-0.50886069419,0.860843881605,0.0,0.0,0.0,0.0,0.0,0.0,0.0,0.0,0.0,-0.000112,-0.000797,0.001841,0.0,0.0,0.0,0.0,0.0,0.0,0.0,0.0,0.0,-0.06,0.013,-9.603,0.0,0.0,0.0,0.0,0.0,0.0,0.0,0.0,0.0
1581113106403738130,355,1581113106403623104,,0.859401724162,-0.00208045838936,-0.508853200066,0.860848304178,0.0,0.0,0.0,0.0,0.0,0.0,0.0,0.0,0.0,-0.001475,-0.000242,0.003181,0.0,0.0,0.0,0.0,0.0,0.0,0.0,0.0,0.0,-0.057,0.032,-9.636,0.0,0.0,0.0,0.0,0.0,0.0,0.0,0.0,0.0
1581113106428797475,356,1581113106428674936,,0.859401724162,-0.0020879888391,-0.508845680517,0.860852720106,0.0,0.0,0.0,0.0,0.0,0.0,0.0,0.0,0.0,-0.000736,-0.000476,-0.000289,0.0,0.0,0.0,0.0,0.0,0.0,0.0,0.0,0.0,-0.061,-0.004,-9.597,0.0,0.0,0.0,0.0,0.0,0.0,0.0,0.0,0.0
1581113106453175201,357,1581113106452950000,,0.859397262191,-0.00208044031507,-0.508860712365,0.860843863563,0.0,0.0,0.0,0.0,0.0,0.0,0.0,0.0,0.0,-0.00072,-0.000211,-0.000115,0.0,0.0,0.0,0.0,0.0,0.0,0.0,0.0,0.0,-0.054,0.036,-9.583,0.0,0.0,0.0,0.0,0.0,0.0,0.0,0.0,0.0
1581113106478577885,358,1581113106478435993,,0.859410642443,-0.00207605408662,-0.508838193487,0.860857167104,0.0,0.0,0.0,0.0,0.0,0.0,0.0,0.0,0.0,-0.000786,-0.000798,-0.002353,0.0,0.0,0.0,0.0,0.0,0.0,0.0,0.0,0.0,-0.051,0.019,-9.62,0.0,0.0,0.0,0.0,0.0,0.0,0.0,0.0,0.0
1581113106503751843,359,1581113106503576993,,0.859410647907,-0.00208802506438,-0.508830655725,0.860861601007,0.0,0.0,0.0,0.0,0.0,0.0,0.0,0.0,0.0,0.000404,0.000315,-0.002232,0.0,0.0,0.0,0.0,0.0,0.0,0.0,0.0,0.0,-0.038,0.017,-9.618,0.0,0.0,0.0,0.0,0.0,0.0,0.0,0.0,0.0
1581113106528923651,360,1581113106528779983,,0.859397262191,-0.00208797072622,-0.508853192854,0.860848279557,0.0,0.0,0.0,0.0,0.0,0.0,0.0,0.0,0.0,0.001117,-0.00055,0.001639,0.0,0.0,0.0,0.0,0.0,0.0,0.0,0.0,0.0,-0.071,0.031,-9.621,0.0,0.0,0.0,0.0,0.0,0.0,0.0,0.0,0.0
1581113106553685150,361,1581113106553548097,,0.859392800155,-0.00208795261318,-0.508860705154,0.860843838942,0.0,0.0,0.0,0.0,0.0,0.0,0.0,0.0,0.0,-0.000753,-0.000536,-0.001148,0.0,0.0,0.0,0.0,0.0,0.0,0.0,0.0,0.0,-0.05,0.014,-9.611,0.0,0.0,0.0,0.0,0.0,0.0,0.0,0.0,0.0
1581113106578571342,362,1581113106578427076,,0.859406191467,-0.00208491697973,-0.508845669553,0.860852762768,0.0,0.0,0.0,0.0,0.0,0.0,0.0,0.0,0.0,-0.000692,-0.000515,0.000274,0.0,0.0,0.0,0.0,0.0,0.0,0.0,0.0,0.0,-0.042,0.009,-9.616,0.0,0.0,0.0,0.0,0.0,0.0,0.0,0.0,0.0
1581113106603568864,363,1581113106603425979,,0.859415115081,-0.0020849529964,-0.50883064476,0.860861643669,0.0,0.0,0.0,0.0,0.0,0.0,0.0,0.0,0.0,5.2e-05,-0.001105,-0.00121,0.0,0.0,0.0,0.0,0.0,0.0,0.0,0.0,0.0,-0.058,-0.022,-9.608,0.0,0.0,0.0,0.0,0.0,0.0,0.0,0.0,0.0
1581113106629934293,364,1581113106629753112,,0.859415125684,-0.00209383376617,-0.508830608293,0.860861679555,0.0,0.0,0.0,0.0,0.0,0.0,0.0,0.0,0.0,-0.000351,0.000467,0.002578,0.0,0.0,0.0,0.0,0.0,0.0,0.0,0.0,0.0,-0.059,0.019,-9.608,0.0,0.0,0.0,0.0,0.0,0.0,0.0,0.0,0.0
1581113106653665522,365,1581113106653538942,,0.859432966859,-0.00208193463912,-0.508808096368,0.860875006983,0.0,0.0,0.0,0.0,0.0,0.0,0.0,0.0,0.0,-0.000522,8.3e-05,9.4e-05,0.0,0.0,0.0,0.0,0.0,0.0,0.0,0.0,0.0,-0.033,0.032,-9.603,0.0,0.0,0.0,0.0,0.0,0.0,0.0,0.0,0.0
1581113106678670751,366,1581113106678491115,,0.859437422973,-0.00207751241964,-0.508800601946,0.860879429202,0.0,0.0,0.0,0.0,0.0,0.0,0.0,0.0,0.0,0.000331,-0.000493,-0.00032,0.0,0.0,0.0,0.0,0.0,0.0,0.0,0.0,0.0,-0.057,0.009,-9.579,0.0,0.0,0.0,0.0,0.0,0.0,0.0,0.0,0.0
1581113106703331060,367,1581113106703192949,,0.859437422973,-0.00207751241964,-0.508800601946,0.860879429202,0.0,0.0,0.0,0.0,0.0,0.0,0.0,0.0,0.0,-0.000288,-0.000773,-0.000547,0.0,0.0,0.0,0.0,0.0,0.0,0.0,0.0,0.0,-0.07,0.035,-9.618,0.0,0.0,0.0,0.0,0.0,0.0,0.0,0.0,0.0
1581113106728276297,368,1581113106728143930,,0.85942402757,-0.00206857787313,-0.508823175724,0.860866072469,0.0,0.0,0.0,0.0,0.0,0.0,0.0,0.0,0.0,-0.001834,-6.1e-05,-0.00199,0.0,0.0,0.0,0.0,0.0,0.0,0.0,0.0,0.0,-0.051,0.035,-9.602,0.0,0.0,0.0,0.0,0.0,0.0,0.0,0.0,0.0
1581113106753738449,369,1581113106753609895,,0.859437412108,-0.00206863217358,-0.508800638128,0.860879393133,0.0,0.0,0.0,0.0,0.0,0.0,0.0,0.0,0.0,0.000755,-0.000896,0.003087,0.0,0.0,0.0,0.0,0.0,0.0,0.0,0.0,0.0,-0.051,0.027,-9.62,0.0,0.0,0.0,0.0,0.0,0.0,0.0,0.0,0.0
1581113106778893076,370,1581113106778755903,,0.859446334806,-0.00206866837309,-0.508785612871,0.860888273249,0.0,0.0,0.0,0.0,0.0,0.0,0.0,0.0,0.0,0.000711,0.000105,0.002786,0.0,0.0,0.0,0.0,0.0,0.0,0.0,0.0,0.0,-0.036,0.032,-9.594,0.0,0.0,0.0,0.0,0.0,0.0,0.0,0.0,0.0
1581113106803449634,371,1581113106803313970,,0.859432950661,-0.00206861407359,-0.508808150699,0.860874952978,0.0,0.0,0.0,0.0,0.0,0.0,0.0,0.0,0.0,0.000966,-0.000952,-0.003022,0.0,0.0,0.0,0.0,0.0,0.0,0.0,0.0,0.0,-0.056,0.008,-9.598,0.0,0.0,0.0,0.0,0.0,0.0,0.0,0.0,0.0
1581113106828895632,372,1581113106828767061,,0.859428489148,-0.00207612664316,-0.508808143593,0.860874928383,0.0,0.0,0.0,0.0,0.0,0.0,0.0,0.0,0.0,-0.00037,-0.000628,-0.000825,0.0,0.0,0.0,0.0,0.0,0.0,0.0,0.0,0.0,-0.05,0.029,-9.622,0.0,0.0,0.0,0.0,0.0,0.0,0.0,0.0,0.0
1581113106853314178,373,1581113106853179931,,0.859446340271,-0.00208063912354,-0.508778074942,0.860892706719,0.0,0.0,0.0,0.0,0.0,0.0,0.0,0.0,0.0,-0.00083,-0.001061,-0.000516,0.0,0.0,0.0,0.0,0.0,0.0,0.0,0.0,0.0,-0.087,0.012,-9.607,0.0,0.0,0.0,0.0,0.0,0.0,0.0,0.0,0.0
1581113106878334319,374,1581113106878206014,,0.859455262708,-0.00208820618127,-0.508755529441,0.860906001581,0.0,0.0,0.0,0.0,0.0,0.0,0.0,0.0,0.0,-0.000589,-0.000613,0.002594,0.0,0.0,0.0,0.0,0.0,0.0,0.0,0.0,0.0,-0.049,0.014,-9.584,0.0,0.0,0.0,0.0,0.0,0.0,0.0,0.0,0.0
1581113106903748365,375,1581113106903585910,,0.859464190282,-0.00209268200107,-0.508740485476,0.860914898987,0.0,0.0,0.0,0.0,0.0,0.0,0.0,0.0,0.0,0.000868,-0.000186,-0.001264,0.0,0.0,0.0,0.0,0.0,0.0,0.0,0.0,0.0,-0.039,0.029,-9.594,0.0,0.0,0.0,0.0,0.0,0.0,0.0,0.0,0.0
1581113106928668726,376,1581113106928539037,,0.859459729228,-0.00209266395598,-0.508747998357,0.860910459356,0.0,0.0,0.0,0.0,0.0,0.0,0.0,0.0,0.0,-0.000745,-0.000978,-0.002416,0.0,0.0,0.0,0.0,0.0,0.0,0.0,0.0,0.0,-0.045,0.0,-9.607,0.0,0.0,0.0,0.0,0.0,0.0,0.0,0.0,0.0
1581113106953770302,377,1581113106953641891,,0.859468656606,-0.00208960868132,-0.508740474534,0.860914941543,0.0,0.0,0.0,0.0,0.0,0.0,0.0,0.0,0.0,0.000645,-0.000518,0.001666,0.0,0.0,0.0,0.0,0.0,0.0,0.0,0.0,0.0,-0.045,-0.0,-9.587,0.0,0.0,0.0,0.0,0.0,0.0,0.0,0.0,0.0
1581113106978379944,378,1581113106978247880,,0.85947311753,-0.00208962662195,-0.508732961614,0.860919381109,0.0,0.0,0.0,0.0,0.0,0.0,0.0,0.0,0.0,-0.000862,-0.000412,0.001228,0.0,0.0,0.0,0.0,0.0,0.0,0.0,0.0,0.0,-0.041,0.0,-9.594,0.0,0.0,0.0,0.0,0.0,0.0,0.0,0.0,0.0
1581113107003317829,379,1581113107003182888,,0.859482049653,-0.00209854130535,-0.50871789911,0.860928295792,0.0,0.0,0.0,0.0,0.0,0.0,0.0,0.0,0.0,-0.000223,0.00084,-0.00032,0.0,0.0,0.0,0.0,0.0,0.0,0.0,0.0,0.0,-0.045,0.009,-9.585,0.0,0.0,0.0,0.0,0.0,0.0,0.0,0.0,0.0
1581113107028628200,380,1581113107028497934,,0.859486510381,-0.00208349750512,-0.50872542693,0.860923905095,0.0,0.0,0.0,0.0,0.0,0.0,0.0,0.0,0.0,0.000748,-0.00038,0.001326,0.0,0.0,0.0,0.0,0.0,0.0,0.0,0.0,0.0,-0.04,0.029,-9.618,0.0,0.0,0.0,0.0,0.0,0.0,0.0,0.0,0.0
1581113107053899153,381,1581113107053769111,,0.859486505177,-0.00207905803819,-0.508725445093,0.860923887331,0.0,0.0,0.0,0.0,0.0,0.0,0.0,0.0,0.0,-0.000187,-2.9e-05,-0.000196,0.0,0.0,0.0,0.0,0.0,0.0,0.0,0.0,0.0,-0.05,-0.006,-9.586,0.0,0.0,0.0,0.0,0.0,0.0,0.0,0.0,0.0
1581113107078670494,382,1581113107078541040,,0.859499886967,-0.00207911142951,-0.508702905984,0.860937205437,0.0,0.0,0.0,0.0,0.0,0.0,0.0,0.0,0.0,0.000122,-0.00193,0.000895,0.0,0.0,0.0,0.0,0.0,0.0,0.0,0.0,0.0,-0.03,0.026,-9.618,0.0,0.0,0.0,0.0,0.0,0.0,0.0,0.0,0.0
1581113107103435225,383,1581113107103287935,,0.859495421166,-0.00207465429661,-0.508710437183,0.860932748304,0.0,0.0,0.0,0.0,0.0,0.0,0.0,0.0,0.0,-0.000332,-0.001726,-0.000733,0.0,0.0,0.0,0.0,0.0,0.0,0.0,0.0,0.0,-0.041,-0.0,-9.6,0.0,0.0,0.0,0.0,0.0,0.0,0.0,0.0,0.0
1581113107128287459,384,1581113107128155946,,0.859499881698,-0.00206714122324,-0.508710444405,0.860932772652,0.0,0.0,0.0,0.0,0.0,0.0,0.0,0.0,0.0,0.000317,-0.0001,-0.00154,0.0,0.0,0.0,0.0,0.0,0.0,0.0,0.0,0.0,-0.046,-0.013,-9.617,0.0,0.0,0.0,0.0,0.0,0.0,0.0,0.0,0.0
1581113107160375517,385,1581113107159902095,,0.859504347432,-0.00207159831746,-0.508702913271,0.860937229746,0.0,0.0,0.0,0.0,0.0,0.0,0.0,0.0,0.0,-0.00087,-0.0013,-0.001006,0.0,0.0,0.0,0.0,0.0,0.0,0.0,0.0,0.0,-0.041,0.015,-9.588,0.0,0.0,0.0,0.0,0.0,0.0,0.0,0.0,0.0
1581113107178772243,386,1581113107178618907,,0.859504347432,-0.00207159831746,-0.508702913271,0.860937229746,0.0,0.0,0.0,0.0,0.0,0.0,0.0,0.0,0.0,-0.00046,0.000676,0.000558,0.0,0.0,0.0,0.0,0.0,0.0,0.0,0.0,0.0,-0.03,0.014,-9.617,0.0,0.0,0.0,0.0,0.0,0.0,0.0,0.0,0.0
1581113107203203151,387,1581113107203067064,,0.859517728436,-0.00206412064372,-0.508687894252,0.860946132399,0.0,0.0,0.0,0.0,0.0,0.0,0.0,0.0,0.0,-0.000408,4.8e-05,-0.001726,0.0,0.0,0.0,0.0,0.0,0.0,0.0,0.0,0.0,-0.059,0.019,-9.594,0.0,0.0,0.0,0.0,0.0,0.0,0.0,0.0,0.0
1581113107228081978,388,1581113107227977991,,0.859544488677,-0.00206422695534,-0.508642814521,0.860972766055,0.0,0.0,0.0,0.0,0.0,0.0,0.0,0.0,0.0,0.00018,0.00151,-0.001218,0.0,0.0,0.0,0.0,0.0,0.0,0.0,0.0,0.0,-0.028,-0.002,-9.601,0.0,0.0,0.0,0.0,0.0,0.0,0.0,0.0,0.0
1581113107253017923,389,1581113107252866029,,0.859548948488,-0.00207177589087,-0.508627780388,0.860981619171,0.0,0.0,0.0,0.0,0.0,0.0,0.0,0.0,0.0,-0.000549,0.000128,0.001765,0.0,0.0,0.0,0.0,0.0,0.0,0.0,0.0,0.0,-0.054,0.001,-9.596,0.0,0.0,0.0,0.0,0.0,0.0,0.0,0.0,0.0
1581113107278372744,390,1581113107278266906,,0.859531108851,-0.00207923600372,-0.508650313374,0.860968278723,0.0,0.0,0.0,0.0,0.0,0.0,0.0,0.0,0.0,-0.000119,8.3e-05,-0.001907,0.0,0.0,0.0,0.0,0.0,0.0,0.0,0.0,0.0,-0.037,0.023,-9.62,0.0,0.0,0.0,0.0,0.0,0.0,0.0,0.0,0.0
1581113107303337149,391,1581113107303210020,,0.859540023531,-0.00206730163152,-0.508642825334,0.860972724021,0.0,0.0,0.0,0.0,0.0,0.0,0.0,0.0,0.0,-1.2e-05,8.5e-05,-0.001786,0.0,0.0,0.0,0.0,0.0,0.0,0.0,0.0,0.0,-0.051,0.009,-9.631,0.0,0.0,0.0,0.0,0.0,0.0,0.0,0.0,0.0
1581113107328329300,392,1581113107328231096,,0.859531108851,-0.00207923600372,-0.508650313374,0.860968278723,0.0,0.0,0.0,0.0,0.0,0.0,0.0,0.0,0.0,-1.7e-05,-4e-05,-0.002508,0.0,0.0,0.0,0.0,0.0,0.0,0.0,0.0,0.0,-0.057,0.01,-9.603,0.0,0.0,0.0,0.0,0.0,0.0,0.0,0.0,0.0
1581113107353220121,393,1581113107353080034,,0.859517728436,-0.00207918261572,-0.508672853296,0.860954961993,0.0,0.0,0.0,0.0,0.0,0.0,0.0,0.0,0.0,0.000763,-0.000977,-0.001184,0.0,0.0,0.0,0.0,0.0,0.0,0.0,0.0,0.0,-0.049,0.005,-9.617,0.0,0.0,0.0,0.0,0.0,0.0,0.0,0.0,0.0
1581113107378353910,394,1581113107378247976,,0.85952218864,-0.00207920041188,-0.508665340027,0.860959400969,0.0,0.0,0.0,0.0,0.0,0.0,0.0,0.0,0.0,-0.000511,-0.002004,-0.002323,0.0,0.0,0.0,0.0,0.0,0.0,0.0,0.0,0.0,-0.04,0.017,-9.606,0.0,0.0,0.0,0.0,0.0,0.0,0.0,0.0,0.0
1581113107402962446,395,1581113107402859926,,0.85951773364,-0.00208362162369,-0.508672835133,0.860954979757,0.0,0.0,0.0,0.0,0.0,0.0,0.0,0.0,0.0,0.000498,0.000387,0.000379,0.0,0.0,0.0,0.0,0.0,0.0,0.0,0.0,0.0,-0.077,0.003,-9.59,0.0,0.0,0.0,0.0,0.0,0.0,0.0,0.0,0.0
1581113107428972341,396,1581113107428853034,,0.859517738778,-0.00208806063151,-0.50867281693,0.860954997455,0.0,0.0,0.0,0.0,0.0,0.0,0.0,0.0,0.0,0.000628,-0.001103,-0.000919,0.0,0.0,0.0,0.0,0.0,0.0,0.0,0.0,0.0,-0.033,0.01,-9.604,0.0,0.0,0.0,0.0,0.0,0.0,0.0,0.0,0.0
1581113107453345516,397,1581113107453228950,,0.859535584274,-0.00208503905405,-0.508650266248,0.860968356008,0.0,0.0,0.0,0.0,0.0,0.0,0.0,0.0,0.0,0.000916,-0.001663,-0.002299,0.0,0.0,0.0,0.0,0.0,0.0,0.0,0.0,0.0,-0.057,0.035,-9.604,0.0,0.0,0.0,0.0,0.0,0.0,0.0,0.0,0.0
1581113107478307801,398,1581113107478192090,,0.85954449902,-0.00208063549449,-0.508635257614,0.860977215906,0.0,0.0,0.0,0.0,0.0,0.0,0.0,0.0,0.0,0.000238,2.2e-05,0.002091,0.0,0.0,0.0,0.0,0.0,0.0,0.0,0.0,0.0,-0.062,0.02,-9.588,0.0,0.0,0.0,0.0,0.0,0.0,0.0,0.0,0.0
1581113107513259389,399,1581113107512814998,,0.859535574063,-0.00209122373552,-0.508635261011,0.86097714964,0.0,0.0,0.0,0.0,0.0,0.0,0.0,0.0,0.0,-0.000639,-0.000497,-0.000151,0.0,0.0,0.0,0.0,0.0,0.0,0.0,0.0,0.0,-0.048,0.026,-9.568,0.0,0.0,0.0,0.0,0.0,0.0,0.0,0.0,0.0
1581113107528976360,400,1581113107528834104,,0.859540039143,-0.0020956801184,-0.50862772928,0.860981606023,0.0,0.0,0.0,0.0,0.0,0.0,0.0,0.0,0.0,-0.001013,-0.001257,-0.00081,0.0,0.0,0.0,0.0,0.0,0.0,0.0,0.0,0.0,-0.054,0.016,-9.608,0.0,0.0,0.0,0.0,0.0,0.0,0.0,0.0,0.0
1581113107553406672,401,1581113107553291082,,0.859553418576,-0.00209573322634,-0.50860518866,0.860994921571,0.0,0.0,0.0,0.0,0.0,0.0,0.0,0.0,0.0,-0.000385,-0.000817,-0.002027,0.0,0.0,0.0,0.0,0.0,0.0,0.0,0.0,0.0,-0.065,0.002,-9.613,0.0,0.0,0.0,0.0,0.0,0.0,0.0,0.0,0.0
1581113107578424157,402,1581113107578298091,,0.859571256904,-0.00209580403469,-0.508575133957,0.861012674717,0.0,0.0,0.0,0.0,0.0,0.0,0.0,0.0,0.0,3.1e-05,-0.000221,0.001443,0.0,0.0,0.0,0.0,0.0,0.0,0.0,0.0,0.0,-0.038,0.01,-9.607,0.0,0.0,0.0,0.0,0.0,0.0,0.0,0.0,0.0
1581113107603071407,403,1581113107602967977,,0.859571261977,-0.0021002421899,-0.508575115649,0.861012692386,0.0,0.0,0.0,0.0,0.0,0.0,0.0,0.0,0.0,-0.000199,-0.000598,-0.001094,0.0,0.0,0.0,0.0,0.0,0.0,0.0,0.0,0.0,-0.063,0.012,-9.597,0.0,0.0,0.0,0.0,0.0,0.0,0.0,0.0,0.0
1581113107628256476,404,1581113107627995014,,0.859562337871,-0.00209576863083,-0.508590161386,0.861003798275,0.0,0.0,0.0,0.0,0.0,0.0,0.0,0.0,0.0,0.000491,-0.001045,0.000932,0.0,0.0,0.0,0.0,0.0,0.0,0.0,0.0,0.0,-0.04,0.02,-9.597,0.0,0.0,0.0,0.0,0.0,0.0,0.0,0.0,0.0
1581113107653045969,405,1581113107652940988,,0.859571251766,-0.00208383438031,-0.508582673349,0.861008243131,0.0,0.0,0.0,0.0,0.0,0.0,0.0,0.0,0.0,-4.9e-05,-0.000995,-0.00195,0.0,0.0,0.0,0.0,0.0,0.0,0.0,0.0,0.0,-0.038,0.003,-9.614,0.0,0.0,0.0,0.0,0.0,0.0,0.0,0.0,0.0
1581113107678420357,406,1581113107678311109,,0.859584634963,-0.00207326272345,-0.508575156202,0.861012747415,0.0,0.0,0.0,0.0,0.0,0.0,0.0,0.0,0.0,-0.000184,0.000277,0.000484,0.0,0.0,0.0,0.0,0.0,0.0,0.0,0.0,0.0,-0.057,0.022,-9.622,0.0,0.0,0.0,0.0,0.0,0.0,0.0,0.0,0.0
1581113107703073798,407,1581113107702967882,,0.859575711184,-0.00206878926528,-0.508590201704,0.861003853354,0.0,0.0,0.0,0.0,0.0,0.0,0.0,0.0,0.0,0.0001,6.7e-05,0.002518,0.0,0.0,0.0,0.0,0.0,0.0,0.0,0.0,0.0,-0.07,0.017,-9.583,0.0,0.0,0.0,0.0,0.0,0.0,0.0,0.0,0.0
1581113107728037415,408,1581113107727935075,,0.859575711184,-0.00207632064856,-0.508582680698,0.861008267402,0.0,0.0,0.0,0.0,0.0,0.0,0.0,0.0,0.0,0.000662,0.000228,0.001284,0.0,0.0,0.0,0.0,0.0,0.0,0.0,0.0,0.0,-0.068,0.007,-9.586,0.0,0.0,0.0,0.0,0.0,0.0,0.0,0.0,0.0
1581113107752840090,409,1581113107752737045,,0.859575711184,-0.002083852109,-0.508575159615,0.861012681319,0.0,0.0,0.0,0.0,0.0,0.0,0.0,0.0,0.0,0.000618,-0.000948,-0.00132,0.0,0.0,0.0,0.0,0.0,0.0,0.0,0.0,0.0,-0.054,0.01,-9.547,0.0,0.0,0.0,0.0,0.0,0.0,0.0,0.0,0.0
1581113107778521117,410,1581113107778418064,,0.859566787078,-0.00207937836473,-0.508590205209,0.861003787115,0.0,0.0,0.0,0.0,0.0,0.0,0.0,0.0,0.0,-0.000412,-1e-05,0.002746,0.0,0.0,0.0,0.0,0.0,0.0,0.0,0.0,0.0,-0.066,0.007,-9.592,0.0,0.0,0.0,0.0,0.0,0.0,0.0,0.0,0.0
1581113107803101159,411,1581113107802988052,,0.859553408234,-0.00208685639089,-0.50860522516,0.860994886035,0.0,0.0,0.0,0.0,0.0,0.0,0.0,0.0,0.0,-0.000811,-4e-05,0.000759,0.0,0.0,0.0,0.0,0.0,0.0,0.0,0.0,0.0,-0.044,0.013,-9.568,0.0,0.0,0.0,0.0,0.0,0.0,0.0,0.0,0.0
1581113107835387723,412,1581113107834836006,,0.859544488677,-0.00208682072348,-0.508620252278,0.860986009068,0.0,0.0,0.0,0.0,0.0,0.0,0.0,0.0,0.0,-3.3e-05,-0.000367,-0.000834,0.0,0.0,0.0,0.0,0.0,0.0,0.0,0.0,0.0,-0.044,-0.007,-9.603,0.0,0.0,0.0,0.0,0.0,0.0,0.0,0.0,0.0
1581113107853788656,413,1581113107853652954,,0.859544483408,-0.00208238217438,-0.508620270469,0.860985991201,0.0,0.0,0.0,0.0,0.0,0.0,0.0,0.0,0.0,0.001234,-0.001144,-0.000967,0.0,0.0,0.0,0.0,0.0,0.0,0.0,0.0,0.0,-0.054,0.016,-9.59,0.0,0.0,0.0,0.0,0.0,0.0,0.0,0.0,0.0
1581113107878029728,414,1581113107877882957,,0.859548943219,-0.00208993158828,-0.508605236055,0.860994843689,0.0,0.0,0.0,0.0,0.0,0.0,0.0,0.0,0.0,-0.000431,-0.000421,0.002121,0.0,0.0,0.0,0.0,0.0,0.0,0.0,0.0,0.0,-0.043,0.001,-9.62,0.0,0.0,0.0,0.0,0.0,0.0,0.0,0.0,0.0
1581113107903079002,415,1581113107902956008,,0.859535568859,-0.00209431638864,-0.508627758416,0.860981546045,0.0,0.0,0.0,0.0,0.0,0.0,0.0,0.0,0.0,-2.5e-05,8.8e-05,-0.001822,0.0,0.0,0.0,0.0,0.0,0.0,0.0,0.0,0.0,-0.053,0.015,-9.585,0.0,0.0,0.0,0.0,0.0,0.0,0.0,0.0,0.0
1581113107929074158,416,1581113107928966999,,0.859535563589,-0.00208234637521,-0.508635297432,0.860977113972,0.0,0.0,0.0,0.0,0.0,0.0,0.0,0.0,0.0,-0.00268,0.00082,-0.001559,0.0,0.0,0.0,0.0,0.0,0.0,0.0,0.0,0.0,-0.042,0.008,-9.598,0.0,0.0,0.0,0.0,0.0,0.0,0.0,0.0,0.0
1581113107953250446,417,1581113107953053951,,0.859553402964,-0.00207488649694,-0.508612764188,0.860990454132,0.0,0.0,0.0,0.0,0.0,0.0,0.0,0.0,0.0,0.001045,-0.000418,0.001997,0.0,0.0,0.0,0.0,0.0,0.0,0.0,0.0,0.0,-0.019,0.015,-9.595,0.0,0.0,0.0,0.0,0.0,0.0,0.0,0.0,0.0
1581113107979163480,418,1581113107979015111,,0.859548948488,-0.00207177589087,-0.508627780388,0.860981619171,0.0,0.0,0.0,0.0,0.0,0.0,0.0,0.0,0.0,0.000539,-3.6e-05,-0.002107,0.0,0.0,0.0,0.0,0.0,0.0,0.0,0.0,0.0,-0.055,0.019,-9.609,0.0,0.0,0.0,0.0,0.0,0.0,0.0,0.0,0.0
1581113108003014158,419,1581113108002859115,,0.859553402964,-0.00206735509811,-0.508620284947,0.860986039964,0.0,0.0,0.0,0.0,0.0,0.0,0.0,0.0,0.0,-0.000286,-0.000873,-0.000744,0.0,0.0,0.0,0.0,0.0,0.0,0.0,0.0,0.0,-0.06,0.024,-9.614,0.0,0.0,0.0,0.0,0.0,0.0,0.0,0.0,0.0
1581113108028773756,420,1581113108028639078,,0.859540023531,-0.00207483291462,-0.508635304691,0.860977138386,0.0,0.0,0.0,0.0,0.0,0.0,0.0,0.0,0.0,-0.001808,0.000141,-0.002596,0.0,0.0,0.0,0.0,0.0,0.0,0.0,0.0,0.0,-0.058,0.013,-9.599,0.0,0.0,0.0,0.0,0.0,0.0,0.0,0.0,0.0
1581113108054158289,421,1581113108054009914,,0.859557862645,-0.00206737291999,-0.508612771407,0.860990478481,0.0,0.0,0.0,0.0,0.0,0.0,0.0,0.0,0.0,0.000148,-0.000535,0.002887,0.0,0.0,0.0,0.0,0.0,0.0,0.0,0.0,0.0,-0.043,0.006,-9.62,0.0,0.0,0.0,0.0,0.0,0.0,0.0,0.0,0.0
1581113108078968164,422,1581113108078855037,,0.859553408234,-0.00206426239129,-0.508627787634,0.860981643416,0.0,0.0,0.0,0.0,0.0,0.0,0.0,0.0,0.0,0.000627,0.000439,-0.000739,0.0,0.0,0.0,0.0,0.0,0.0,0.0,0.0,0.0,-0.033,0.019,-9.588,0.0,0.0,0.0,0.0,0.0,0.0,0.0,0.0,0.0
1581113108103063701,423,1581113108102950096,,0.859553402964,-0.00205229253191,-0.508635326234,0.860977211235,0.0,0.0,0.0,0.0,0.0,0.0,0.0,0.0,0.0,-0.000193,0.000297,-0.000974,0.0,0.0,0.0,0.0,0.0,0.0,0.0,0.0,0.0,-0.051,-0.001,-9.585,0.0,0.0,0.0,0.0,0.0,0.0,0.0,0.0,0.0
1581113108128958147,424,1581113108128793954,,0.859548937884,-0.00204783604081,-0.508642857548,0.860972754744,0.0,0.0,0.0,0.0,0.0,0.0,0.0,0.0,0.0,-0.00058,-0.000677,-0.001651,0.0,0.0,0.0,0.0,0.0,0.0,0.0,0.0,0.0,-0.052,-0.0,-9.6,0.0,0.0,0.0,0.0,0.0,0.0,0.0,0.0,0.0
1581113108152987190,425,1581113108152827024,,0.859544478073,-0.0020478182302,-0.508650370933,0.860968315965,0.0,0.0,0.0,0.0,0.0,0.0,0.0,0.0,0.0,-0.000586,-9.8e-05,-0.000683,0.0,0.0,0.0,0.0,0.0,0.0,0.0,0.0,0.0,-0.058,0.017,-9.611,0.0,0.0,0.0,0.0,0.0,0.0,0.0,0.0,0.0
1581113108178928066,426,1581113108178817987,,0.859557851909,-0.00204343304633,-0.508627848513,0.860981614262,0.0,0.0,0.0,0.0,0.0,0.0,0.0,0.0,0.0,-0.000176,-0.000681,-0.001278,0.0,0.0,0.0,0.0,0.0,0.0,0.0,0.0,0.0,-0.041,0.003,-9.553,0.0,0.0,0.0,0.0,0.0,0.0,0.0,0.0,0.0
1581113108204193620,427,1581113108204034090,,0.859562311524,-0.00203591954625,-0.508627855485,0.860981638492,0.0,0.0,0.0,0.0,0.0,0.0,0.0,0.0,0.0,0.000185,-0.000401,-0.00145,0.0,0.0,0.0,0.0,0.0,0.0,0.0,0.0,0.0,-0.039,0.042,-9.589,0.0,0.0,0.0,0.0,0.0,0.0,0.0,0.0,0.0
1581113108229197318,428,1581113108229017019,,0.859557851909,-0.00203590170912,-0.508635368948,0.860977199844,0.0,0.0,0.0,0.0,0.0,0.0,0.0,0.0,0.0,0.000206,-0.00036,0.000211,0.0,0.0,0.0,0.0,0.0,0.0,0.0,0.0,0.0,-0.027,0.013,-9.578,0.0,0.0,0.0,0.0,0.0,0.0,0.0,0.0,0.0
1581113108253964338,429,1581113108253854036,,0.859557846443,-0.00203146302811,-0.508635386695,0.860977181974,0.0,0.0,0.0,0.0,0.0,0.0,0.0,0.0,0.0,-0.001154,0.000654,0.002869,0.0,0.0,0.0,0.0,0.0,0.0,0.0,0.0,0.0,-0.039,0.021,-9.621,0.0,0.0,0.0,0.0,0.0,0.0,0.0,0.0,0.0
1581113108278726371,430,1581113108278600931,,0.859566771073,-0.00203593738323,-0.508620341984,0.860986077074,0.0,0.0,0.0,0.0,0.0,0.0,0.0,0.0,0.0,0.000458,-0.000734,0.001792,0.0,0.0,0.0,0.0,0.0,0.0,0.0,0.0,0.0,-0.046,0.007,-9.623,0.0,0.0,0.0,0.0,0.0,0.0,0.0,0.0,0.0
1581113108304226781,431,1581113108304085016,,0.85955785731,-0.00204034038999,-0.508635351162,0.860977217648,0.0,0.0,0.0,0.0,0.0,0.0,0.0,0.0,0.0,0.000647,0.000818,0.001345,0.0,0.0,0.0,0.0,0.0,0.0,0.0,0.0,0.0,-0.043,0.017,-9.57,0.0,0.0,0.0,0.0,0.0,0.0,0.0,0.0,0.0
1581113108329136320,432,1581113108328994989,,0.859562316924,-0.00204035816155,-0.508627837699,0.860981656296,0.0,0.0,0.0,0.0,0.0,0.0,0.0,0.0,0.0,-0.000923,0.001021,-0.000538,0.0,0.0,0.0,0.0,0.0,0.0,0.0,0.0,0.0,-0.071,0.006,-9.616,0.0,0.0,0.0,0.0,0.0,0.0,0.0,0.0,0.0
1581113108354181892,433,1581113108354033946,,0.85955785731,-0.00204787166156,-0.508627830661,0.860981632105,0.0,0.0,0.0,0.0,0.0,0.0,0.0,0.0,0.0,-0.000347,-0.000605,0.002685,0.0,0.0,0.0,0.0,0.0,0.0,0.0,0.0,0.0,-0.037,0.027,-9.584,0.0,0.0,0.0,0.0,0.0,0.0,0.0,0.0,0.0
1581113108379065282,434,1581113108378935098,,0.859562316924,-0.0020478894717,-0.50862031716,0.860986070688,0.0,0.0,0.0,0.0,0.0,0.0,0.0,0.0,0.0,0.001108,-0.000318,-0.004158,0.0,0.0,0.0,0.0,0.0,0.0,0.0,0.0,0.0,-0.056,0.002,-9.584,0.0,0.0,0.0,0.0,0.0,0.0,0.0,0.0,0.0
1581113108403787048,435,1581113108403682947,,0.85955339763,-0.00204785385127,-0.508635344124,0.860977193457,0.0,0.0,0.0,0.0,0.0,0.0,0.0,0.0,0.0,7.4e-05,-0.000312,0.002901,0.0,0.0,0.0,0.0,0.0,0.0,0.0,0.0,0.0,-0.08,0.002,-9.578,0.0,0.0,0.0,0.0,0.0,0.0,0.0,0.0,0.0
1581113108429545561,436,1581113108429368019,,0.859548937884,-0.00204783604081,-0.508642857548,0.860972754744,0.0,0.0,0.0,0.0,0.0,0.0,0.0,0.0,0.0,0.001371,0.000203,-0.001896,0.0,0.0,0.0,0.0,0.0,0.0,0.0,0.0,0.0,-0.051,0.008,-9.61,0.0,0.0,0.0,0.0,0.0,0.0,0.0,0.0,0.0
1581113108454662758,437,1581113108454493045,,0.859544472673,-0.00204337941827,-0.508650388785,0.860968298121,0.0,0.0,0.0,0.0,0.0,0.0,0.0,0.0,0.0,-0.000732,-0.000297,0.001187,0.0,0.0,0.0,0.0,0.0,0.0,0.0,0.0,0.0,-0.06,0.029,-9.605,0.0,0.0,0.0,0.0,0.0,0.0,0.0,0.0,0.0
1581113108479613246,438,1581113108479465961,,0.859557851909,-0.00203590170912,-0.508635368948,0.860977199844,0.0,0.0,0.0,0.0,0.0,0.0,0.0,0.0,0.0,0.001152,-0.000487,-0.002178,0.0,0.0,0.0,0.0,0.0,0.0,0.0,0.0,0.0,-0.022,0.03,-9.626,0.0,0.0,0.0,0.0,0.0,0.0,0.0,0.0,0.0
1581113108504634464,439,1581113108504503011,,0.859544472673,-0.0020358481968,-0.508657909104,0.860963883506,0.0,0.0,0.0,0.0,0.0,0.0,0.0,0.0,0.0,-0.001271,-3e-06,-0.000933,0.0,0.0,0.0,0.0,0.0,0.0,0.0,0.0,0.0,-0.071,0.019,-9.609,0.0,0.0,0.0,0.0,0.0,0.0,0.0,0.0,0.0
1581113108529256247,440,1581113108529084920,,0.859548927018,-0.00203895854792,-0.508642893212,0.860972718992,0.0,0.0,0.0,0.0,0.0,0.0,0.0,0.0,0.0,0.001073,-0.000772,0.002542,0.0,0.0,0.0,0.0,0.0,0.0,0.0,0.0,0.0,-0.038,0.021,-9.598,0.0,0.0,0.0,0.0,0.0,0.0,0.0,0.0,0.0
1581113108554410944,441,1581113108554272890,,0.859557851909,-0.00202837044908,-0.508642889306,0.860972785294,0.0,0.0,0.0,0.0,0.0,0.0,0.0,0.0,0.0,-0.000156,0.001091,-0.002643,0.0,0.0,0.0,0.0,0.0,0.0,0.0,0.0,0.0,-0.057,0.055,-9.613,0.0,0.0,0.0,0.0,0.0,0.0,0.0,0.0,0.0
1581113108579590043,442,1581113108579461097,,0.859557851909,-0.0020208392662,-0.508650409587,0.860968370612,0.0,0.0,0.0,0.0,0.0,0.0,0.0,0.0,0.0,0.001216,-0.000205,0.001904,0.0,0.0,0.0,0.0,0.0,0.0,0.0,0.0,0.0,-0.034,0.005,-9.58,0.0,0.0,0.0,0.0,0.0,0.0,0.0,0.0,0.0
1581113108604615338,443,1581113108604477882,,0.859544478073,-0.00202522499418,-0.508672931858,0.860955071608,0.0,0.0,0.0,0.0,0.0,0.0,0.0,0.0,0.0,0.000193,-0.001806,-0.001478,0.0,0.0,0.0,0.0,0.0,0.0,0.0,0.0,0.0,-0.084,0.006,-9.598,0.0,0.0,0.0,0.0,0.0,0.0,0.0,0.0,0.0
1581113108629666595,444,1581113108629503011,,0.85955785731,-0.00202527807831,-0.508650391932,0.860968388339,0.0,0.0,0.0,0.0,0.0,0.0,0.0,0.0,0.0,-9.2e-05,-0.000801,0.001222,0.0,0.0,0.0,0.0,0.0,0.0,0.0,0.0,0.0,-0.047,0.006,-9.629,0.0,0.0,0.0,0.0,0.0,0.0,0.0,0.0,0.0
1581113108654363586,445,1581113108654222965,,0.85957570071,-0.00202225627591,-0.508627840952,0.860981746097,0.0,0.0,0.0,0.0,0.0,0.0,0.0,0.0,0.0,0.000364,0.000475,0.001884,0.0,0.0,0.0,0.0,0.0,0.0,0.0,0.0,0.0,-0.061,0.023,-9.616,0.0,0.0,0.0,0.0,0.0,0.0,0.0,0.0,0.0
1581113108679432360,446,1581113108679296016,,0.859580154728,-0.00202536654878,-0.508612824615,0.86099058158,0.0,0.0,0.0,0.0,0.0,0.0,0.0,0.0,0.0,-0.0003,-0.000393,0.001353,0.0,0.0,0.0,0.0,0.0,0.0,0.0,0.0,0.0,-0.061,0.01,-9.605,0.0,0.0,0.0,0.0,0.0,0.0,0.0,0.0,0.0
1581113108705429629,447,1581113108705255031,,0.859562306058,-0.0020314809308,-0.508627873233,0.860981620622,0.0,0.0,0.0,0.0,0.0,0.0,0.0,0.0,0.0,0.000641,-0.001119,-0.000896,0.0,0.0,0.0,0.0,0.0,0.0,0.0,0.0,0.0,-0.021,-0.006,-9.615,0.0,0.0,0.0,0.0,0.0,0.0,0.0,0.0,0.0
1581113108729619353,448,1581113108729477882,,0.859571230557,-0.00203595522005,-0.508612828443,0.860990515591,0.0,0.0,0.0,0.0,0.0,0.0,0.0,0.0,0.0,-0.000195,0.000572,-0.001786,0.0,0.0,0.0,0.0,0.0,0.0,0.0,0.0,0.0,-0.051,-0.004,-9.558,0.0,0.0,0.0,0.0,0.0,0.0,0.0,0.0,0.0
1581113108754675858,449,1581113108754529953,,0.859566771073,-0.00203593738323,-0.508620341984,0.860986077074,0.0,0.0,0.0,0.0,0.0,0.0,0.0,0.0,0.0,-0.000252,-0.00054,0.000598,0.0,0.0,0.0,0.0,0.0,0.0,0.0,0.0,0.0,-0.054,0.015,-9.609,0.0,0.0,0.0,0.0,0.0,0.0,0.0,0.0,0.0
