%time,field.header.seq,field.header.stamp,field.header.frame_id,field.orientation.x,field.orientation.y,field.orientation.z,field.orientation.w,field.orientation_covariance0,field.orientation_covariance1,field.orientation_covariance2,field.orientation_covariance3,field.orientation_covariance4,field.orientation_covariance5,field.orientation_covariance6,field.orientation_covariance7,field.orientation_covariance8,field.angular_velocity.x,field.angular_velocity.y,field.angular_velocity.z,field.angular_velocity_covariance0,field.angular_velocity_covariance1,field.angular_velocity_covariance2,field.angular_velocity_covariance3,field.angular_velocity_covariance4,field.angular_velocity_covariance5,field.angular_velocity_covariance6,field.angular_velocity_covariance7,field.angular_velocity_covariance8,field.linear_acceleration.x,field.linear_acceleration.y,field.linear_acceleration.z,field.linear_acceleration_covariance0,field.linear_acceleration_covariance1,field.linear_acceleration_covariance2,field.linear_acceleration_covariance3,field.linear_acceleration_covariance4,field.linear_acceleration_covariance5,field.linear_acceleration_covariance6,field.linear_acceleration_covariance7,field.linear_acceleration_covariance8
1581113306002929749,1,1581113306002741098,,0.864484204496,-0.00312361462663,-0.49870030202,0.866760787185,0.0,0.0,0.0,0.0,0.0,0.0,0.0,0.0,0.0,0.000714,2.5e-05,-0.000313,0.0,0.0,0.0,0.0,0.0,0.0,0.0,0.0,0.0,-0.068,0.04,-9.588,0.0,0.0,0.0,0.0,0.0,0.0,0.0,0.0,0.0
1581113306027538236,2,1581113306027383089,,0.864501750015,-0.00311614844965,-0.498677617245,0.866773884716,0.0,0.0,0.0,0.0,0.0,0.0,0.0,0.0,0.0,3.2e-05,0.000312,0.000974,0.0,0.0,0.0,0.0,0.0,0.0,0.0,0.0,0.0,-0.079,0.017,-9.59,0.0,0.0,0.0,0.0,0.0,0.0,0.0,0.0,0.0
1581113306052625350,3,1581113306052500963,,0.86449299006,-0.00312043516165,-0.498692718015,0.866765213587,0.0,0.0,0.0,0.0,0.0,0.0,0.0,0.0,0.0,-5e-06,-0.000402,0.000771,0.0,0.0,0.0,0.0,0.0,0.0,0.0,0.0,0.0,-0.104,0.056,-9.61,0.0,0.0,0.0,0.0,0.0,0.0,0.0,0.0,0.0
1581113306077767466,4,1581113306077609062,,0.86450612349,-0.00309663588234,-0.498685222466,0.866769583914,0.0,0.0,0.0,0.0,0.0,0.0,0.0,0.0,0.0,-0.000402,0.000734,-0.000636,0.0,0.0,0.0,0.0,0.0,0.0,0.0,0.0,0.0,-0.07,0.035,-9.622,0.0,0.0,0.0,0.0,0.0,0.0,0.0,0.0,0.0
1581113306102943036,5,1581113306102824926,,0.864514908462,-0.00310105278244,-0.498670067364,0.866778320039,0.0,0.0,0.0,0.0,0.0,0.0,0.0,0.0,0.0,0.000223,5.4e-05,0.00136,0.0,0.0,0.0,0.0,0.0,0.0,0.0,0.0,0.0,-0.085,0.022,-9.578,0.0,0.0,0.0,0.0,0.0,0.0,0.0,0.0,0.0
1581113306128331475,6,1581113306128202915,,0.864501750015,-0.00310095520605,-0.498692759397,0.86676526459,0.0,0.0,0.0,0.0,0.0,0.0,0.0,0.0,0.0,0.000336,-0.000385,0.000539,0.0,0.0,0.0,0.0,0.0,0.0,0.0,0.0,0.0,-0.072,0.011,-9.609,0.0,0.0,0.0,0.0,0.0,0.0,0.0,0.0,0.0
1581113306152709829,7,1581113306152554035,,0.86450613623,-0.00310858435355,-0.498677624348,0.866773926535,0.0,0.0,0.0,0.0,0.0,0.0,0.0,0.0,0.0,-6.1e-05,0.001273,-0.000967,0.0,0.0,0.0,0.0,0.0,0.0,0.0,0.0,0.0,-0.083,0.048,-9.614,0.0,0.0,0.0,0.0,0.0,0.0,0.0,0.0,0.0
1581113306177547292,8,1581113306177436113,,0.864488590975,-0.00311605064469,-0.498700309162,0.86676082907,0.0,0.0,0.0,0.0,0.0,0.0,0.0,0.0,0.0,-0.000424,0.000158,-0.001326,0.0,0.0,0.0,0.0,0.0,0.0,0.0,0.0,0.0,-0.104,0.026,-9.592,0.0,0.0,0.0,0.0,0.0,0.0,0.0,0.0,0.0
1581113306203206263,9,1581113306203042984,,0.864484204496,-0.00313121128617,-0.498692730906,0.866765097182,0.0,0.0,0.0,0.0,0.0,0.0,0.0,0.0,0.0,3.6e-05,-2.9e-05,0.000921,0.0,0.0,0.0,0.0,0.0,0.0,0.0,0.0,0.0,-0.093,0.047,-9.609,0.0,0.0,0.0,0.0,0.0,0.0,0.0,0.0,0.0
1581113306228188420,10,1581113306228049993,,0.864488578236,-0.00313448895344,-0.498677623081,0.866773726114,0.0,0.0,0.0,0.0,0.0,0.0,0.0,0.0,0.0,0.000722,0.000245,-0.000289,0.0,0.0,0.0,0.0,0.0,0.0,0.0,0.0,0.0,-0.085,0.029,-9.596,0.0,0.0,0.0,0.0,0.0,0.0,0.0,0.0,0.0
1581113306253194722,11,1581113306253087043,,0.864488578236,-0.00314208586773,-0.498670051846,0.866778035743,0.0,0.0,0.0,0.0,0.0,0.0,0.0,0.0,0.0,0.001154,-0.001667,-0.000664,0.0,0.0,0.0,0.0,0.0,0.0,0.0,0.0,0.0,-0.08,0.058,-9.611,0.0,0.0,0.0,0.0,0.0,0.0,0.0,0.0,0.0
1581113306278580030,12,1581113306278450012,,0.864484204496,-0.00314640483168,-0.498677588454,0.866773716779,0.0,0.0,0.0,0.0,0.0,0.0,0.0,0.0,0.0,0.000366,-0.000537,-0.001278,0.0,0.0,0.0,0.0,0.0,0.0,0.0,0.0,0.0,-0.072,0.03,-9.58,0.0,0.0,0.0,0.0,0.0,0.0,0.0,0.0,0.0
1581113306302519959,13,1581113306302356004,,0.864475418603,-0.00315718123835,-0.498677601401,0.866773599552,0.0,0.0,0.0,0.0,0.0,0.0,0.0,0.0,0.0,-0.000272,-0.001327,-0.000142,0.0,0.0,0.0,0.0,0.0,0.0,0.0,0.0,0.0,-0.079,0.037,-9.605,0.0,0.0,0.0,0.0,0.0,0.0,0.0,0.0,0.0
1581113306328896105,14,1581113306328751087,,0.864488590975,-0.00315403450846,-0.498662453031,0.866782378063,0.0,0.0,0.0,0.0,0.0,0.0,0.0,0.0,0.0,0.000239,-0.000686,-6.6e-05,0.0,0.0,0.0,0.0,0.0,0.0,0.0,0.0,0.0,-0.104,0.013,-9.595,0.0,0.0,0.0,0.0,0.0,0.0,0.0,0.0,0.0
1581113306352975643,15,1581113306352861881,,0.864484204496,-0.00316159867907,-0.498662445701,0.866782335848,0.0,0.0,0.0,0.0,0.0,0.0,0.0,0.0,0.0,-0.001131,-0.000577,-0.0004,0.0,0.0,0.0,0.0,0.0,0.0,0.0,0.0,0.0,-0.09,0.028,-9.589,0.0,0.0,0.0,0.0,0.0,0.0,0.0,0.0,0.0
1581113306377773396,16,1581113306377614974,,0.864492977387,-0.00315406729903,-0.498654888909,0.866786729681,0.0,0.0,0.0,0.0,0.0,0.0,0.0,0.0,0.0,0.001119,-8e-05,0.001693,0.0,0.0,0.0,0.0,0.0,0.0,0.0,0.0,0.0,-0.079,0.023,-9.59,0.0,0.0,0.0,0.0,0.0,0.0,0.0,0.0,0.0
1581113306402685568,17,1581113306402524948,,0.864492964648,-0.00314971571409,-0.498654916414,0.866786696858,0.0,0.0,0.0,0.0,0.0,0.0,0.0,0.0,0.0,6.6e-05,-0.001261,0.000911,0.0,0.0,0.0,0.0,0.0,0.0,0.0,0.0,0.0,-0.06,0.021,-9.569,0.0,0.0,0.0,0.0,0.0,0.0,0.0,0.0,0.0
1581113306427542850,18,1581113306427381992,,0.864501737275,-0.00314218432356,-0.49864735948,0.866791090597,0.0,0.0,0.0,0.0,0.0,0.0,0.0,0.0,0.0,0.000507,-0.000971,-0.001051,0.0,0.0,0.0,0.0,0.0,0.0,0.0,0.0,0.0,-0.059,0.024,-9.61,0.0,0.0,0.0,0.0,0.0,0.0,0.0,0.0,0.0
1581113306452992875,19,1581113306452881097,,0.864488590975,-0.00313884073653,-0.498677595709,0.866773758862,0.0,0.0,0.0,0.0,0.0,0.0,0.0,0.0,0.0,0.000394,-0.000279,0.001952,0.0,0.0,0.0,0.0,0.0,0.0,0.0,0.0,0.0,-0.076,0.035,-9.586,0.0,0.0,0.0,0.0,0.0,0.0,0.0,0.0,0.0
1581113306479005880,20,1581113306478894948,,0.864488603648,-0.00314319251939,-0.498677568298,0.866773791545,0.0,0.0,0.0,0.0,0.0,0.0,0.0,0.0,0.0,0.000366,0.000435,-0.000335,0.0,0.0,0.0,0.0,0.0,0.0,0.0,0.0,0.0,-0.062,0.02,-9.595,0.0,0.0,0.0,0.0,0.0,0.0,0.0,0.0,0.0
1581113306503168992,21,1581113306503053903,,0.864497363734,-0.0031389061665,-0.498662467577,0.866782462296,0.0,0.0,0.0,0.0,0.0,0.0,0.0,0.0,0.0,1.6e-05,-0.000154,0.000964,0.0,0.0,0.0,0.0,0.0,0.0,0.0,0.0,0.0,-0.088,0.036,-9.632,0.0,0.0,0.0,0.0,0.0,0.0,0.0,0.0,0.0
1581113306529441586,22,1581113306529273986,,0.864488590975,-0.00313884073653,-0.498677595709,0.866773758862,0.0,0.0,0.0,0.0,0.0,0.0,0.0,0.0,0.0,-4.3e-05,-0.000888,0.000893,0.0,0.0,0.0,0.0,0.0,0.0,0.0,0.0,0.0,-0.099,0.014,-9.607,0.0,0.0,0.0,0.0,0.0,0.0,0.0,0.0,0.0
1581113306552510267,23,1581113306552361965,,0.864497376407,-0.00313566103518,-0.498670011533,0.866778185274,0.0,0.0,0.0,0.0,0.0,0.0,0.0,0.0,0.0,0.000947,-5.4e-05,0.001292,0.0,0.0,0.0,0.0,0.0,0.0,0.0,0.0,0.0,-0.095,0.026,-9.577,0.0,0.0,0.0,0.0,0.0,0.0,0.0,0.0,0.0
1581113306578328043,24,1581113306578222990,,0.864506148903,-0.00314332311433,-0.498647311881,0.866791198147,0.0,0.0,0.0,0.0,0.0,0.0,0.0,0.0,0.0,-0.000612,0.000725,-0.000258,0.0,0.0,0.0,0.0,0.0,0.0,0.0,0.0,0.0,-0.069,0.043,-9.593,0.0,0.0,0.0,0.0,0.0,0.0,0.0,0.0,0.0
1581113306603906319,25,1581113306603754997,,0.86451054766,-0.00314011038575,-0.498647291779,0.866791272704,0.0,0.0,0.0,0.0,0.0,0.0,0.0,0.0,0.0,5.6e-05,0.000605,0.000573,0.0,0.0,0.0,0.0,0.0,0.0,0.0,0.0,0.0,-0.097,0.038,-9.585,0.0,0.0,0.0,0.0,0.0,0.0,0.0,0.0,0.0
1581113306628931013,26,1581113306628819942,,0.864497363734,-0.00313130931827,-0.498670038878,0.86677815263,0.0,0.0,0.0,0.0,0.0,0.0,0.0,0.0,0.0,-0.000828,0.000275,0.001625,0.0,0.0,0.0,0.0,0.0,0.0,0.0,0.0,0.0,-0.085,0.035,-9.593,0.0,0.0,0.0,0.0,0.0,0.0,0.0,0.0,0.0
1581113306652728134,27,1581113306652570009,,0.86450613623,-0.00312377782359,-0.498662481971,0.866782546265,0.0,0.0,0.0,0.0,0.0,0.0,0.0,0.0,0.0,-0.000309,-0.000454,0.00045,0.0,0.0,0.0,0.0,0.0,0.0,0.0,0.0,0.0,-0.089,0.035,-9.641,0.0,0.0,0.0,0.0,0.0,0.0,0.0,0.0,0.0
1581113306678552975,28,1581113306678395986,,0.864488590975,-0.00313124396378,-0.498685166935,0.866769449064,0.0,0.0,0.0,0.0,0.0,0.0,0.0,0.0,0.0,0.001053,-0.000356,0.001809,0.0,0.0,0.0,0.0,0.0,0.0,0.0,0.0,0.0,-0.095,0.035,-9.578,0.0,0.0,0.0,0.0,0.0,0.0,0.0,0.0,0.0
1581113306702489645,29,1581113306702383995,,0.864475418603,-0.00313439060867,-0.498700314994,0.866760670467,0.0,0.0,0.0,0.0,0.0,0.0,0.0,0.0,0.0,-0.000305,-0.001251,-0.002213,0.0,0.0,0.0,0.0,0.0,0.0,0.0,0.0,0.0,-0.093,0.018,-9.607,0.0,0.0,0.0,0.0,0.0,0.0,0.0,0.0,0.0
1581113306737167744,30,1581113306736687898,,0.864466645186,-0.00313432504429,-0.498715442745,0.866751966373,0.0,0.0,0.0,0.0,0.0,0.0,0.0,0.0,0.0,-0.000748,8e-05,-0.000399,0.0,0.0,0.0,0.0,0.0,0.0,0.0,0.0,0.0,-0.09,0.026,-9.605,0.0,0.0,0.0,0.0,0.0,0.0,0.0,0.0,0.0
1581113306753550714,31,1581113306753416061,,0.864462271117,-0.00313864444089,-0.498722979193,0.866747646976,0.0,0.0,0.0,0.0,0.0,0.0,0.0,0.0,0.0,0.000382,-0.000793,-0.000295,0.0,0.0,0.0,0.0,0.0,0.0,0.0,0.0,0.0,-0.074,0.025,-9.592,0.0,0.0,0.0,0.0,0.0,0.0,0.0,0.0,0.0
1581113306778553901,32,1581113306778443098,,0.864479817952,-0.00313877530561,-0.498692723689,0.866765055164,0.0,0.0,0.0,0.0,0.0,0.0,0.0,0.0,0.0,-8.6e-05,-0.00023,0.000262,0.0,0.0,0.0,0.0,0.0,0.0,0.0,0.0,0.0,-0.077,0.029,-9.608,0.0,0.0,0.0,0.0,0.0,0.0,0.0,0.0,0.0
1581113306803358813,33,1581113306803251981,,0.864479817952,-0.00313117860833,-0.49870029484,0.866760745233,0.0,0.0,0.0,0.0,0.0,0.0,0.0,0.0,0.0,-4.5e-05,0.000868,-0.000293,0.0,0.0,0.0,0.0,0.0,0.0,0.0,0.0,0.0,-0.079,0.05,-9.605,0.0,0.0,0.0,0.0,0.0,0.0,0.0,0.0,0.0
1581113306829035090,34,1581113306828928947,,0.864484204496,-0.00313880802119,-0.498685159718,0.866769407046,0.0,0.0,0.0,0.0,0.0,0.0,0.0,0.0,0.0,-3e-06,0.000536,0.000236,0.0,0.0,0.0,0.0,0.0,0.0,0.0,0.0,0.0,-0.086,0.021,-9.599,0.0,0.0,0.0,0.0,0.0,0.0,0.0,0.0,0.0
1581113306853923524,35,1581113306853809118,,0.864484191757,-0.003126859371,-0.498692758212,0.866765064471,0.0,0.0,0.0,0.0,0.0,0.0,0.0,0.0,0.0,0.000631,0.00025,0.001348,0.0,0.0,0.0,0.0,0.0,0.0,0.0,0.0,0.0,-0.086,0.033,-9.614,0.0,0.0,0.0,0.0,0.0,0.0,0.0,0.0,0.0
1581113306879067730,36,1581113306878964900,,0.864484204496,-0.00312361462663,-0.49870030202,0.866760787185,0.0,0.0,0.0,0.0,0.0,0.0,0.0,0.0,0.0,0.000982,0.000372,-1e-05,0.0,0.0,0.0,0.0,0.0,0.0,0.0,0.0,0.0,-0.088,0.034,-9.621,0.0,0.0,0.0,0.0,0.0,0.0,0.0,0.0,0.0
1581113306912864300,37,1581113306912399053,,0.864484217169,-0.00312796660764,-0.498700274742,0.866760819792,0.0,0.0,0.0,0.0,0.0,0.0,0.0,0.0,0.0,0.00025,-0.00046,0.000785,0.0,0.0,0.0,0.0,0.0,0.0,0.0,0.0,0.0,-0.07,0.028,-9.606,0.0,0.0,0.0,0.0,0.0,0.0,0.0,0.0,0.0
1581113306929293334,38,1581113306929157972,,0.864488590975,-0.0031236472665,-0.498692738086,0.866765139133,0.0,0.0,0.0,0.0,0.0,0.0,0.0,0.0,0.0,2.7e-05,-0.001211,-0.000465,0.0,0.0,0.0,0.0,0.0,0.0,0.0,0.0,0.0,-0.108,0.028,-9.584,0.0,0.0,0.0,0.0,0.0,0.0,0.0,0.0,0.0
1581113306953674467,39,1581113306953568935,,0.864501775295,-0.0031248520155,-0.498677562782,0.866773949787,0.0,0.0,0.0,0.0,0.0,0.0,0.0,0.0,0.0,0.000629,0.000501,0.000426,0.0,0.0,0.0,0.0,0.0,0.0,0.0,0.0,0.0,-0.083,0.016,-9.596,0.0,0.0,0.0,0.0,0.0,0.0,0.0,0.0,0.0
1581113306979083180,40,1581113306978951930,,0.864514958761,-0.00313365259112,-0.498654815906,0.866787069643,0.0,0.0,0.0,0.0,0.0,0.0,0.0,0.0,0.0,0.001349,-0.00017,-1.1e-05,0.0,0.0,0.0,0.0,0.0,0.0,0.0,0.0,0.0,-0.096,0.023,-9.609,0.0,0.0,0.0,0.0,0.0,0.0,0.0,0.0,0.0
1581113307004006511,41,1581113307003900051,,0.864493015209,-0.00314433198918,-0.498677520778,0.866773898614,0.0,0.0,0.0,0.0,0.0,0.0,0.0,0.0,0.0,-0.00012,-0.001086,-0.000708,0.0,0.0,0.0,0.0,0.0,0.0,0.0,0.0,0.0,-0.1,0.038,-9.591,0.0,0.0,0.0,0.0,0.0,0.0,0.0,0.0,0.0
1581113307028799014,42,1581113307028651952,,0.864493015209,-0.00315192860146,-0.498669949315,0.86677820846,0.0,0.0,0.0,0.0,0.0,0.0,0.0,0.0,0.0,0.00052,0.00039,-0.000109,0.0,0.0,0.0,0.0,0.0,0.0,0.0,0.0,0.0,-0.076,0.028,-9.565,0.0,0.0,0.0,0.0,0.0,0.0,0.0,0.0,0.0
1581113307053774419,43,1581113307053632020,,0.864488628797,-0.00315189608438,-0.498677513363,0.866773856711,0.0,0.0,0.0,0.0,0.0,0.0,0.0,0.0,0.0,6.3e-05,-0.000553,-0.000286,0.0,0.0,0.0,0.0,0.0,0.0,0.0,0.0,0.0,-0.079,0.023,-9.633,0.0,0.0,0.0,0.0,0.0,0.0,0.0,0.0,0.0
1581113307078591691,44,1581113307078484058,,0.864510560202,-0.00314446190416,-0.498647264357,0.866791305216,0.0,0.0,0.0,0.0,0.0,0.0,0.0,0.0,0.0,-0.000458,0.001714,0.000415,0.0,0.0,0.0,0.0,0.0,0.0,0.0,0.0,0.0,-0.088,0.035,-9.631,0.0,0.0,0.0,0.0,0.0,0.0,0.0,0.0,0.0
1581113307103838410,45,1581113307103723049,,0.864514946285,-0.00315209118324,-0.498632128507,0.866799966216,0.0,0.0,0.0,0.0,0.0,0.0,0.0,0.0,0.0,0.000503,-0.00103,0.000122,0.0,0.0,0.0,0.0,0.0,0.0,0.0,0.0,0.0,-0.108,0.018,-9.576,0.0,0.0,0.0,0.0,0.0,0.0,0.0,0.0,0.0
1581113307129204042,46,1581113307129096031,,0.864514946285,-0.00315968805965,-0.498624556781,0.8668042756,0.0,0.0,0.0,0.0,0.0,0.0,0.0,0.0,0.0,-0.000516,-0.000917,-0.000225,0.0,0.0,0.0,0.0,0.0,0.0,0.0,0.0,0.0,-0.078,0.045,-9.588,0.0,0.0,0.0,0.0,0.0,0.0,0.0,0.0,0.0
1581113307153953551,47,1581113307153845071,,0.864528104141,-0.00315978571903,-0.498601863727,0.866817329263,0.0,0.0,0.0,0.0,0.0,0.0,0.0,0.0,0.0,-0.001296,-0.000764,0.000725,0.0,0.0,0.0,0.0,0.0,0.0,0.0,0.0,0.0,-0.088,0.035,-9.607,0.0,0.0,0.0,0.0,0.0,0.0,0.0,0.0,0.0
1581113307178526071,48,1581113307178374052,,0.864541261404,-0.00315988337625,-0.498579170332,0.866830382332,0.0,0.0,0.0,0.0,0.0,0.0,0.0,0.0,0.0,-0.000564,-0.000604,-0.000426,0.0,0.0,0.0,0.0,0.0,0.0,0.0,0.0,0.0,-0.08,0.033,-9.588,0.0,0.0,0.0,0.0,0.0,0.0,0.0,0.0,0.0
1581113307203388145,49,1581113307203280925,,0.864536875715,-0.00315985082409,-0.498586734835,0.866826031375,0.0,0.0,0.0,0.0,0.0,0.0,0.0,0.0,0.0,-0.00122,-0.000266,-0.00014,0.0,0.0,0.0,0.0,0.0,0.0,0.0,0.0,0.0,-0.079,0.026,-9.604,0.0,0.0,0.0,0.0,0.0,0.0,0.0,0.0,0.0
1581113307228529103,50,1581113307228424072,,0.864554418074,-0.00315238381534,-0.498564048659,0.866839126019,0.0,0.0,0.0,0.0,0.0,0.0,0.0,0.0,0.0,1.5e-05,0.00055,0.001214,0.0,0.0,0.0,0.0,0.0,0.0,0.0,0.0,0.0,-0.089,0.017,-9.557,0.0,0.0,0.0,0.0,0.0,0.0,0.0,0.0,0.0
1581113307253885599,51,1581113307253776073,,0.864558790957,-0.0031404683583,-0.498564083493,0.866839135414,0.0,0.0,0.0,0.0,0.0,0.0,0.0,0.0,0.0,-0.000808,0.000593,-0.000322,0.0,0.0,0.0,0.0,0.0,0.0,0.0,0.0,0.0,-0.074,0.044,-9.6,0.0,0.0,0.0,0.0,0.0,0.0,0.0,0.0,0.0
1581113307278609912,52,1581113307278472900,,0.864554405532,-0.00314803302313,-0.498564076149,0.866839093472,0.0,0.0,0.0,0.0,0.0,0.0,0.0,0.0,0.0,-0.00131,-0.001805,0.001181,0.0,0.0,0.0,0.0,0.0,0.0,0.0,0.0,0.0,-0.098,0.048,-9.584,0.0,0.0,0.0,0.0,0.0,0.0,0.0,0.0,0.0
1581113307303591494,53,1581113307303464889,,0.864554380249,-0.00313933143799,-0.498564131017,0.866839028181,0.0,0.0,0.0,0.0,0.0,0.0,0.0,0.0,0.0,-0.001397,-0.00157,0.001596,0.0,0.0,0.0,0.0,0.0,0.0,0.0,0.0,0.0,-0.076,0.047,-9.6,0.0,0.0,0.0,0.0,0.0,0.0,0.0,0.0,0.0
1581113307328326180,54,1581113307328164100,,0.864558765674,-0.0031393641495,-0.498556566401,0.866843378941,0.0,0.0,0.0,0.0,0.0,0.0,0.0,0.0,0.0,0.000976,0.000255,0.000944,0.0,0.0,0.0,0.0,0.0,0.0,0.0,0.0,0.0,-0.101,0.028,-9.619,0.0,0.0,0.0,0.0,0.0,0.0,0.0,0.0,0.0
1581113307353689530,55,1581113307353591918,,0.864567536327,-0.0031470270992,-0.498533865075,0.866856388739,0.0,0.0,0.0,0.0,0.0,0.0,0.0,0.0,0.0,0.00041,-0.001564,0.001351,0.0,0.0,0.0,0.0,0.0,0.0,0.0,0.0,0.0,-0.103,0.036,-9.613,0.0,0.0,0.0,0.0,0.0,0.0,0.0,0.0,0.0
1581113307378649493,56,1581113307378518104,,0.864580704486,-0.00315147567458,-0.498511143174,0.866869472743,0.0,0.0,0.0,0.0,0.0,0.0,0.0,0.0,0.0,8e-06,-0.000822,0.00091,0.0,0.0,0.0,0.0,0.0,0.0,0.0,0.0,0.0,-0.071,0.045,-9.572,0.0,0.0,0.0,0.0,0.0,0.0,0.0,0.0,0.0
1581113307403891153,57,1581113307403728961,,0.864567549001,-0.00315137762777,-0.498533837593,0.866856421455,0.0,0.0,0.0,0.0,0.0,0.0,0.0,0.0,0.0,0.000602,0.000141,0.000244,0.0,0.0,0.0,0.0,0.0,0.0,0.0,0.0,0.0,-0.074,0.027,-9.582,0.0,0.0,0.0,0.0,0.0,0.0,0.0,0.0,0.0
1581113307428796127,58,1581113307428646087,,0.864567561609,-0.00316332562677,-0.498526237887,0.866860762525,0.0,0.0,0.0,0.0,0.0,0.0,0.0,0.0,0.0,-0.000324,0.000793,0.001565,0.0,0.0,0.0,0.0,0.0,0.0,0.0,0.0,0.0,-0.101,0.015,-9.602,0.0,0.0,0.0,0.0,0.0,0.0,0.0,0.0,0.0
1581113307453513715,59,1581113307453360080,,0.864567561609,-0.00317092317289,-0.498518665626,0.866865070814,0.0,0.0,0.0,0.0,0.0,0.0,0.0,0.0,0.0,0.000631,0.000184,0.000753,0.0,0.0,0.0,0.0,0.0,0.0,0.0,0.0,0.0,-0.09,0.036,-9.604,0.0,0.0,0.0,0.0,0.0,0.0,0.0,0.0,0.0
1581113307478537042,60,1581113307478430986,,0.864571934228,-0.00315900788475,-0.498518700668,0.866865080267,0.0,0.0,0.0,0.0,0.0,0.0,0.0,0.0,0.0,0.000409,0.001346,0.002492,0.0,0.0,0.0,0.0,0.0,0.0,0.0,0.0,0.0,-0.1,0.035,-9.596,0.0,0.0,0.0,0.0,0.0,0.0,0.0,0.0,0.0
1581113307503912979,61,1581113307503778934,,0.864563163708,-0.00317413766844,-0.498518685852,0.866864995844,0.0,0.0,0.0,0.0,0.0,0.0,0.0,0.0,0.0,-5.7e-05,-0.000545,0.00063,0.0,0.0,0.0,0.0,0.0,0.0,0.0,0.0,0.0,-0.072,0.03,-9.611,0.0,0.0,0.0,0.0,0.0,0.0,0.0,0.0,0.0
1581113307529469498,62,1581113307529344081,,0.864554392923,-0.00317407207587,-0.498533815424,0.866856294919,0.0,0.0,0.0,0.0,0.0,0.0,0.0,0.0,0.0,-0.000504,-0.000139,0.000914,0.0,0.0,0.0,0.0,0.0,0.0,0.0,0.0,0.0,-0.095,0.04,-9.591,0.0,0.0,0.0,0.0,0.0,0.0,0.0,0.0,0.0
1581113307553621948,63,1581113307553513050,,0.864549994758,-0.00316968868484,-0.498541407833,0.866851911528,0.0,0.0,0.0,0.0,0.0,0.0,0.0,0.0,0.0,0.001543,-7.9e-05,0.001776,0.0,0.0,0.0,0.0,0.0,0.0,0.0,0.0,0.0,-0.062,0.036,-9.549,0.0,0.0,0.0,0.0,0.0,0.0,0.0,0.0,0.0
1581113307578453903,64,1581113307578347921,,0.864558765674,-0.00316975440991,-0.498526278337,0.866860612585,0.0,0.0,0.0,0.0,0.0,0.0,0.0,0.0,0.0,0.001073,0.000205,0.00221,0.0,0.0,0.0,0.0,0.0,0.0,0.0,0.0,0.0,-0.093,0.037,-9.582,0.0,0.0,0.0,0.0,0.0,0.0,0.0,0.0,0.0
1581113307604084591,65,1581113307603977918,,0.864549994758,-0.00316968868484,-0.498541407833,0.866851911528,0.0,0.0,0.0,0.0,0.0,0.0,0.0,0.0,0.0,-0.000421,-0.000884,-0.00075,0.0,0.0,0.0,0.0,0.0,0.0,0.0,0.0,0.0,-0.091,0.025,-9.602,0.0,0.0,0.0,0.0,0.0,0.0,0.0,0.0,0.0
1581113307628995278,66,1581113307628885984,,0.864567536327,-0.00316982013403,-0.498511148689,0.866869313378,0.0,0.0,0.0,0.0,0.0,0.0,0.0,0.0,0.0,0.00115,0.00076,0.001544,0.0,0.0,0.0,0.0,0.0,0.0,0.0,0.0,0.0,-0.087,0.037,-9.59,0.0,0.0,0.0,0.0,0.0,0.0,0.0,0.0,0.0
1581113307654088845,67,1581113307653955936,,0.864567549001,-0.00317417046436,-0.498511121009,0.866869346207,0.0,0.0,0.0,0.0,0.0,0.0,0.0,0.0,0.0,0.000307,0.00021,0.001937,0.0,0.0,0.0,0.0,0.0,0.0,0.0,0.0,0.0,-0.08,0.048,-9.599,0.0,0.0,0.0,0.0,0.0,0.0,0.0,0.0,0.0
1581113307678559975,68,1581113307678450107,,0.864567536327,-0.00317741796319,-0.49850357641,0.866873621327,0.0,0.0,0.0,0.0,0.0,0.0,0.0,0.0,0.0,-0.000243,-0.000859,0.001147,0.0,0.0,0.0,0.0,0.0,0.0,0.0,0.0,0.0,-0.089,0.031,-9.587,0.0,0.0,0.0,0.0,0.0,0.0,0.0,0.0,0.0
1581113307703443168,69,1581113307703337907,,0.864567536327,-0.00317741796319,-0.49850357641,0.866873621327,0.0,0.0,0.0,0.0,0.0,0.0,0.0,0.0,0.0,0.000537,6.6e-05,-0.000935,0.0,0.0,0.0,0.0,0.0,0.0,0.0,0.0,0.0,-0.099,0.037,-9.609,0.0,0.0,0.0,0.0,0.0,0.0,0.0,0.0,0.0
1581113307728817180,70,1581113307728662014,,0.864576293975,-0.00317313362932,-0.498488474245,0.866882288792,0.0,0.0,0.0,0.0,0.0,0.0,0.0,0.0,0.0,-4.1e-05,-0.000409,0.000215,0.0,0.0,0.0,0.0,0.0,0.0,0.0,0.0,0.0,-0.095,0.025,-9.586,0.0,0.0,0.0,0.0,0.0,0.0,0.0,0.0,0.0
1581113307754079634,71,1581113307753962039,,0.864576293975,-0.00318073167544,-0.498480901882,0.866886596438,0.0,0.0,0.0,0.0,0.0,0.0,0.0,0.0,0.0,-0.000754,0.000443,-0.000764,0.0,0.0,0.0,0.0,0.0,0.0,0.0,0.0,0.0,-0.085,0.037,-9.588,0.0,0.0,0.0,0.0,0.0,0.0,0.0,0.0,0.0
1581113307778898868,72,1581113307778779983,,0.864576281169,-0.00317638160882,-0.498480929621,0.866886563402,0.0,0.0,0.0,0.0,0.0,0.0,0.0,0.0,0.0,0.000884,-0.000612,0.000103,0.0,0.0,0.0,0.0,0.0,0.0,0.0,0.0,0.0,-0.084,0.023,-9.596,0.0,0.0,0.0,0.0,0.0,0.0,0.0,0.0,0.0
1581113307803846219,73,1581113307803663969,,0.864567497909,-0.00317196527184,-0.498496087269,0.866877830035,0.0,0.0,0.0,0.0,0.0,0.0,0.0,0.0,0.0,-0.000423,0.000381,-0.00197,0.0,0.0,0.0,0.0,0.0,0.0,0.0,0.0,0.0,-0.122,0.029,-9.613,0.0,0.0,0.0,0.0,0.0,0.0,0.0,0.0,0.0
1581113307828830086,74,1581113307828670978,,0.864549956341,-0.00317943075609,-0.49851877463,0.866864736546,0.0,0.0,0.0,0.0,0.0,0.0,0.0,0.0,0.0,-0.001802,9e-06,-0.001095,0.0,0.0,0.0,0.0,0.0,0.0,0.0,0.0,0.0,-0.065,0.036,-9.582,0.0,0.0,0.0,0.0,0.0,0.0,0.0,0.0,0.0
1581113307853670295,75,1581113307853502035,,0.864558727257,-0.00318709528187,-0.49849607268,0.866877744779,0.0,0.0,0.0,0.0,0.0,0.0,0.0,0.0,0.0,0.000765,-0.001101,-0.000288,0.0,0.0,0.0,0.0,0.0,0.0,0.0,0.0,0.0,-0.086,0.048,-9.582,0.0,0.0,0.0,0.0,0.0,0.0,0.0,0.0,0.0
1581113307879031368,76,1581113307878897905,,0.864571896008,-0.00319914321598,-0.498465777385,0.866895135535,0.0,0.0,0.0,0.0,0.0,0.0,0.0,0.0,0.0,0.00039,0.000325,-0.000194,0.0,0.0,0.0,0.0,0.0,0.0,0.0,0.0,0.0,-0.08,0.017,-9.619,0.0,0.0,0.0,0.0,0.0,0.0,0.0,0.0,0.0
1581113307904106076,77,1581113307903927087,,0.864576281169,-0.00319917639805,-0.498458212279,0.866899485436,0.0,0.0,0.0,0.0,0.0,0.0,0.0,0.0,0.0,0.000614,-0.000699,-0.001982,0.0,0.0,0.0,0.0,0.0,0.0,0.0,0.0,0.0,-0.078,0.025,-9.599,0.0,0.0,0.0,0.0,0.0,0.0,0.0,0.0,0.0
1581113307929407458,78,1581113307929291963,,0.864563112615,-0.00318712849298,-0.498488507725,0.866882094945,0.0,0.0,0.0,0.0,0.0,0.0,0.0,0.0,0.0,-0.001418,9.9e-05,-0.001068,0.0,0.0,0.0,0.0,0.0,0.0,0.0,0.0,0.0,-0.101,0.033,-9.614,0.0,0.0,0.0,0.0,0.0,0.0,0.0,0.0,0.0
1581113307953784844,79,1581113307953628063,,0.864558740128,-0.00319904366828,-0.498488472476,0.866882085434,0.0,0.0,0.0,0.0,0.0,0.0,0.0,0.0,0.0,0.000335,-0.001169,0.001027,0.0,0.0,0.0,0.0,0.0,0.0,0.0,0.0,0.0,-0.084,0.021,-9.574,0.0,0.0,0.0,0.0,0.0,0.0,0.0,0.0,0.0
1581113307978664496,80,1581113307978496074,,0.864554367509,-0.00320336068369,-0.498496009495,0.866877768419,0.0,0.0,0.0,0.0,0.0,0.0,0.0,0.0,0.0,-0.000462,-0.000679,-0.001376,0.0,0.0,0.0,0.0,0.0,0.0,0.0,0.0,0.0,-0.082,0.043,-9.616,0.0,0.0,0.0,0.0,0.0,0.0,0.0,0.0,0.0
1581113308004055153,81,1581113308003931045,,0.864558752934,-0.00319579567916,-0.498496016978,0.866877811069,0.0,0.0,0.0,0.0,0.0,0.0,0.0,0.0,0.0,0.001458,-0.000497,0.000917,0.0,0.0,0.0,0.0,0.0,0.0,0.0,0.0,0.0,-0.08,0.066,-9.587,0.0,0.0,0.0,0.0,0.0,0.0,0.0,0.0,0.0
1581113308029317749,82,1581113308029198884,,0.864571896008,-0.00318394668982,-0.49848092228,0.866886520845,0.0,0.0,0.0,0.0,0.0,0.0,0.0,0.0,0.0,0.001199,-0.000529,0.001655,0.0,0.0,0.0,0.0,0.0,0.0,0.0,0.0,0.0,-0.07,0.041,-9.582,0.0,0.0,0.0,0.0,0.0,0.0,0.0,0.0,0.0
1581113308053930260,83,1581113308053792953,,0.864571908814,-0.00318069867253,-0.498488466876,0.866882246339,0.0,0.0,0.0,0.0,0.0,0.0,0.0,0.0,0.0,0.001152,-0.000776,0.000596,0.0,0.0,0.0,0.0,0.0,0.0,0.0,0.0,0.0,-0.109,0.048,-9.589,0.0,0.0,0.0,0.0,0.0,0.0,0.0,0.0,0.0
1581113308078803996,84,1581113308078623056,,0.864567536327,-0.00320021190331,-0.498480859122,0.86688654438,0.0,0.0,0.0,0.0,0.0,0.0,0.0,0.0,0.0,-0.000732,-0.000518,1.9e-05,0.0,0.0,0.0,0.0,0.0,0.0,0.0,0.0,0.0,-0.097,0.015,-9.604,0.0,0.0,0.0,0.0,0.0,0.0,0.0,0.0,0.0
1581113308103651505,85,1581113308103482007,,0.864545583656,-0.0031989441184,-0.498511167225,0.866869034739,0.0,0.0,0.0,0.0,0.0,0.0,0.0,0.0,0.0,0.001129,-0.000374,0.00085,0.0,0.0,0.0,0.0,0.0,0.0,0.0,0.0,0.0,-0.107,0.032,-9.609,0.0,0.0,0.0,0.0,0.0,0.0,0.0,0.0,0.0
1581113308129833731,86,1581113308129676103,,0.864536837891,-0.00321517661771,-0.498518668569,0.866864707933,0.0,0.0,0.0,0.0,0.0,0.0,0.0,0.0,0.0,0.00036,-9.5e-05,-0.000667,0.0,0.0,0.0,0.0,0.0,0.0,0.0,0.0,0.0,-0.078,0.029,-9.579,0.0,0.0,0.0,0.0,0.0,0.0,0.0,0.0,0.0
1581113308154148205,87,1581113308153997898,,0.864536850565,-0.00321192913742,-0.498526212951,0.866860433201,0.0,0.0,0.0,0.0,0.0,0.0,0.0,0.0,0.0,-0.001193,0.000857,-0.00117,0.0,0.0,0.0,0.0,0.0,0.0,0.0,0.0,0.0,-0.073,0.043,-9.593,0.0,0.0,0.0,0.0,0.0,0.0,0.0,0.0,0.0
1581113308179067886,88,1581113308178936958,,0.864541236253,-0.00320436428488,-0.498526220568,0.866860475776,0.0,0.0,0.0,0.0,0.0,0.0,0.0,0.0,0.0,-0.000478,-0.000244,0.001648,0.0,0.0,0.0,0.0,0.0,0.0,0.0,0.0,0.0,-0.078,0.034,-9.599,0.0,0.0,0.0,0.0,0.0,0.0,0.0,0.0,0.0
1581113308203892912,89,1581113308203768014,,0.864558778348,-0.00321209406488,-0.498488388555,0.866882184686,0.0,0.0,0.0,0.0,0.0,0.0,0.0,0.0,0.0,-0.00136,-0.000742,0.000506,0.0,0.0,0.0,0.0,0.0,0.0,0.0,0.0,0.0,-0.065,0.037,-9.612,0.0,0.0,0.0,0.0,0.0,0.0,0.0,0.0,0.0
1581113308228709191,90,1581113308228533983,,0.86457631939,-0.00321222600244,-0.498458128354,0.866899584685,0.0,0.0,0.0,0.0,0.0,0.0,0.0,0.0,0.0,-0.00015,-0.000372,0.000178,0.0,0.0,0.0,0.0,0.0,0.0,0.0,0.0,0.0,-0.092,0.032,-9.626,0.0,0.0,0.0,0.0,0.0,0.0,0.0,0.0,0.0
1581113308253861554,91,1581113308253701925,,0.864567536327,-0.00320781003423,-0.498473286543,0.8668908518,0.0,0.0,0.0,0.0,0.0,0.0,0.0,0.0,0.0,-2.1e-05,6.2e-05,-0.000434,0.0,0.0,0.0,0.0,0.0,0.0,0.0,0.0,0.0,-0.085,0.011,-9.601,0.0,0.0,0.0,0.0,0.0,0.0,0.0,0.0,0.0
1581113308278902919,92,1581113308278738975,,0.864567536327,-0.00321540824057,-0.498465713888,0.866895159088,0.0,0.0,0.0,0.0,0.0,0.0,0.0,0.0,0.0,0.000192,0.000155,-8.7e-05,0.0,0.0,0.0,0.0,0.0,0.0,0.0,0.0,0.0,-0.103,0.029,-9.603,0.0,0.0,0.0,0.0,0.0,0.0,0.0,0.0,0.0
1581113308304159866,93,1581113308303997039,,0.864558778348,-0.00321969212971,-0.498480815908,0.866886492143,0.0,0.0,0.0,0.0,0.0,0.0,0.0,0.0,0.0,0.000437,0.000957,0.000695,0.0,0.0,0.0,0.0,0.0,0.0,0.0,0.0,0.0,-0.081,0.024,-9.616,0.0,0.0,0.0,0.0,0.0,0.0,0.0,0.0,0.0
1581113308329214572,94,1581113308329094886,,0.864571921554,-0.00320784308451,-0.498465721474,0.866895201767,0.0,0.0,0.0,0.0,0.0,0.0,0.0,0.0,0.0,-6.4e-05,0.00045,0.001364,0.0,0.0,0.0,0.0,0.0,0.0,0.0,0.0,0.0,-0.078,0.039,-9.612,0.0,0.0,0.0,0.0,0.0,0.0,0.0,0.0,0.0
1581113308353771468,95,1581113308353565931,,0.864567536327,-0.00320781003423,-0.498473286543,0.8668908518,0.0,0.0,0.0,0.0,0.0,0.0,0.0,0.0,0.0,0.000415,-0.000714,-0.000869,0.0,0.0,0.0,0.0,0.0,0.0,0.0,0.0,0.0,-0.075,0.033,-9.643,0.0,0.0,0.0,0.0,0.0,0.0,0.0,0.0,0.0
1581113308378785390,96,1581113308378623008,,0.864576293975,-0.003195927994,-0.498465756931,0.866895211335,0.0,0.0,0.0,0.0,0.0,0.0,0.0,0.0,0.0,-0.001064,-0.000759,-0.000594,0.0,0.0,0.0,0.0,0.0,0.0,0.0,0.0,0.0,-0.088,0.028,-9.605,0.0,0.0,0.0,0.0,0.0,0.0,0.0,0.0,0.0
1581113308404348734,97,1581113308404210090,,0.864589449065,-0.00319602722757,-0.498443061496,0.866908260841,0.0,0.0,0.0,0.0,0.0,0.0,0.0,0.0,0.0,0.000752,-0.000809,-0.000646,0.0,0.0,0.0,0.0,0.0,0.0,0.0,0.0,0.0,-0.098,0.051,-9.631,0.0,0.0,0.0,0.0,0.0,0.0,0.0,0.0,0.0
1581113308428985347,98,1581113308428863048,,0.864576293975,-0.00320352626642,-0.498458184342,0.866899518585,0.0,0.0,0.0,0.0,0.0,0.0,0.0,0.0,0.0,-2.1e-05,0.000243,-0.000725,0.0,0.0,0.0,0.0,0.0,0.0,0.0,0.0,0.0,-0.101,0.049,-9.577,0.0,0.0,0.0,0.0,0.0,0.0,0.0,0.0,0.0
1581113308454205179,99,1581113308454065084,,0.864576281169,-0.00319157805954,-0.498465784801,0.866895178224,0.0,0.0,0.0,0.0,0.0,0.0,0.0,0.0,0.0,8.7e-05,-0.00022,-0.002377,0.0,0.0,0.0,0.0,0.0,0.0,0.0,0.0,0.0,-0.12,0.032,-9.611,0.0,0.0,0.0,0.0,0.0,0.0,0.0,0.0,0.0
1581113308479819056,100,1581113308479656934,,0.864576281169,-0.00319917639805,-0.498458212279,0.866899485436,0.0,0.0,0.0,0.0,0.0,0.0,0.0,0.0,0.0,-0.000735,-0.001315,-0.000238,0.0,0.0,0.0,0.0,0.0,0.0,0.0,0.0,0.0,-0.075,0.015,-9.621,0.0,0.0,0.0,0.0,0.0,0.0,0.0,0.0,0.0
1581113308503720995,101,1581113308503551959,,0.864571896008,-0.0032067415922,-0.498458204825,0.866899442681,0.0,0.0,0.0,0.0,0.0,0.0,0.0,0.0,0.0,0.000376,-0.000703,0.00067,0.0,0.0,0.0,0.0,0.0,0.0,0.0,0.0,0.0,-0.071,0.038,-9.608,0.0,0.0,0.0,0.0,0.0,0.0,0.0,0.0,0.0
1581113308532327018,102,1581113308532202959,,0.864563125487,-0.00322187197976,-0.498458189804,0.866899356972,0.0,0.0,0.0,0.0,0.0,0.0,0.0,0.0,0.0,0.000494,-0.001257,-0.00213,0.0,0.0,0.0,0.0,0.0,0.0,0.0,0.0,0.0,-0.096,0.025,-9.589,0.0,0.0,0.0,0.0,0.0,0.0,0.0,0.0,0.0
1581113308553932849,103,1581113308553813934,,0.864571896008,-0.00321434004385,-0.49845063219,0.866903749695,0.0,0.0,0.0,0.0,0.0,0.0,0.0,0.0,0.0,0.000351,6.3e-05,4e-05,0.0,0.0,0.0,0.0,0.0,0.0,0.0,0.0,0.0,-0.079,0.018,-9.581,0.0,0.0,0.0,0.0,0.0,0.0,0.0,0.0,0.0
1581113308580291373,104,1581113308580178976,,0.864580666265,-0.00320680803154,-0.4984430745,0.866908142286,0.0,0.0,0.0,0.0,0.0,0.0,0.0,0.0,0.0,0.00014,0.001988,0.000544,0.0,0.0,0.0,0.0,0.0,0.0,0.0,0.0,0.0,-0.098,0.041,-9.619,0.0,0.0,0.0,0.0,0.0,0.0,0.0,0.0,0.0
1581113308603800463,105,1581113308603635072,,0.864589436258,-0.0032068744699,-0.498427944023,0.866916841626,0.0,0.0,0.0,0.0,0.0,0.0,0.0,0.0,0.0,4.7e-05,-0.000179,-0.000882,0.0,0.0,0.0,0.0,0.0,0.0,0.0,0.0,0.0,-0.089,0.044,-9.601,0.0,0.0,0.0,0.0,0.0,0.0,0.0,0.0,0.0
1581113308629669484,106,1581113308629501104,,0.864589410448,-0.00319817526071,-0.498427999917,0.866916775056,0.0,0.0,0.0,0.0,0.0,0.0,0.0,0.0,0.0,0.000271,-0.000899,0.000384,0.0,0.0,0.0,0.0,0.0,0.0,0.0,0.0,0.0,-0.075,0.018,-9.588,0.0,0.0,0.0,0.0,0.0,0.0,0.0,0.0,0.0
1581113308653925089,107,1581113308653814077,,0.864602577883,-0.0031950260129,-0.498412848746,0.866925550245,0.0,0.0,0.0,0.0,0.0,0.0,0.0,0.0,0.0,0.000975,-0.001572,0.001868,0.0,0.0,0.0,0.0,0.0,0.0,0.0,0.0,0.0,-0.075,0.011,-9.624,0.0,0.0,0.0,0.0,0.0,0.0,0.0,0.0,0.0
1581113308679885123,108,1581113308679716110,,0.86461136009,-0.00320704056153,-0.498390117165,0.866938588823,0.0,0.0,0.0,0.0,0.0,0.0,0.0,0.0,0.0,0.000891,-0.000336,0.000258,0.0,0.0,0.0,0.0,0.0,0.0,0.0,0.0,0.0,-0.075,0.037,-9.605,0.0,0.0,0.0,0.0,0.0,0.0,0.0,0.0,0.0
1581113308703955081,109,1581113308703818082,,0.864606975456,-0.0032070073437,-0.498397682613,0.866934239516,0.0,0.0,0.0,0.0,0.0,0.0,0.0,0.0,0.0,-0.000659,-0.000671,-0.001327,0.0,0.0,0.0,0.0,0.0,0.0,0.0,0.0,0.0,-0.087,-0.003,-9.587,0.0,0.0,0.0,0.0,0.0,0.0,0.0,0.0,0.0
1581113308729801382,110,1581113308729634046,,0.864615744659,-0.00319947502578,-0.498390124616,0.866938631579,0.0,0.0,0.0,0.0,0.0,0.0,0.0,0.0,0.0,-0.000275,-0.000372,0.001563,0.0,0.0,0.0,0.0,0.0,0.0,0.0,0.0,0.0,-0.09,0.015,-9.598,0.0,0.0,0.0,0.0,0.0,0.0,0.0,0.0,0.0
1581113308753730591,111,1581113308753561973,,0.864606975456,-0.00319940866577,-0.498405255473,0.866929932898,0.0,0.0,0.0,0.0,0.0,0.0,0.0,0.0,0.0,-0.001288,0.000748,0.000405,0.0,0.0,0.0,0.0,0.0,0.0,0.0,0.0,0.0,-0.104,0.013,-9.578,0.0,0.0,0.0,0.0,0.0,0.0,0.0,0.0,0.0
1581113308779628878,112,1581113308779453992,,0.864580679071,-0.00321115776781,-0.498443046496,0.866908175472,0.0,0.0,0.0,0.0,0.0,0.0,0.0,0.0,0.0,-0.000448,-3.3e-05,0.00072,0.0,0.0,0.0,0.0,0.0,0.0,0.0,0.0,0.0,-0.089,0.011,-9.602,0.0,0.0,0.0,0.0,0.0,0.0,0.0,0.0,0.0
1581113308805157882,113,1581113308805006980,,0.86456751078,-0.0032143067861,-0.498458197334,0.86689939986,0.0,0.0,0.0,0.0,0.0,0.0,0.0,0.0,0.0,-0.000369,-0.000132,-0.001542,0.0,0.0,0.0,0.0,0.0,0.0,0.0,0.0,0.0,-0.104,0.045,-9.577,0.0,0.0,0.0,0.0,0.0,0.0,0.0,0.0,0.0
1581113308830186433,114,1581113308830035924,,0.864567497909,-0.00320995691762,-0.498458225365,0.866899366569,0.0,0.0,0.0,0.0,0.0,0.0,0.0,0.0,0.0,-0.000195,-0.001198,-0.000175,0.0,0.0,0.0,0.0,0.0,0.0,0.0,0.0,0.0,-0.082,0.033,-9.581,0.0,0.0,0.0,0.0,0.0,0.0,0.0,0.0,0.0
1581113308855145751,115,1581113308855006933,,0.864541198034,-0.00321410723446,-0.498503587397,0.866873299461,0.0,0.0,0.0,0.0,0.0,0.0,0.0,0.0,0.0,-0.001235,-0.000325,-0.001248,0.0,0.0,0.0,0.0,0.0,0.0,0.0,0.0,0.0,-0.106,0.036,-9.609,0.0,0.0,0.0,0.0,0.0,0.0,0.0,0.0,0.0
1581113308879742722,116,1581113308879617929,,0.86454121084,-0.00321845749881,-0.49850355933,0.866873332687,0.0,0.0,0.0,0.0,0.0,0.0,0.0,0.0,0.0,0.000785,-0.000546,0.000371,0.0,0.0,0.0,0.0,0.0,0.0,0.0,0.0,0.0,-0.076,0.029,-9.589,0.0,0.0,0.0,0.0,0.0,0.0,0.0,0.0,0.0
1581113308904642577,117,1581113308904474973,,0.864545583656,-0.00321414049368,-0.498496022481,0.866877649693,0.0,0.0,0.0,0.0,0.0,0.0,0.0,0.0,0.0,-0.000206,0.000845,0.001377,0.0,0.0,0.0,0.0,0.0,0.0,0.0,0.0,0.0,-0.079,0.044,-9.599,0.0,0.0,0.0,0.0,0.0,0.0,0.0,0.0,0.0
1581113308937347706,118,1581113308936991930,,0.864558752934,-0.00320339380073,-0.49848844454,0.866882118584,0.0,0.0,0.0,0.0,0.0,0.0,0.0,0.0,0.0,0.001412,-0.000438,-0.000743,0.0,0.0,0.0,0.0,0.0,0.0,0.0,0.0,0.0,-0.099,0.028,-9.604,0.0,0.0,0.0,0.0,0.0,0.0,0.0,0.0,0.0
1581113308955609339,119,1581113308955439090,,0.864549969213,-0.00320657548958,-0.498496029975,0.866877692513,0.0,0.0,0.0,0.0,0.0,0.0,0.0,0.0,0.0,-0.001088,-0.001325,-0.000306,0.0,0.0,0.0,0.0,0.0,0.0,0.0,0.0,0.0,-0.112,0.031,-9.615,0.0,0.0,0.0,0.0,0.0,0.0,0.0,0.0,0.0
1581113308979719067,120,1581113308979609012,,0.864549969213,-0.00320657548958,-0.498496029975,0.866877692513,0.0,0.0,0.0,0.0,0.0,0.0,0.0,0.0,0.0,-0.000201,0.000239,1e-05,0.0,0.0,0.0,0.0,0.0,0.0,0.0,0.0,0.0,-0.078,0.029,-9.569,0.0,0.0,0.0,0.0,0.0,0.0,0.0,0.0,0.0
1581113309004671772,121,1581113309004561901,,0.864545583656,-0.0031989441184,-0.498511167225,0.866869034739,0.0,0.0,0.0,0.0,0.0,0.0,0.0,0.0,0.0,-5.7e-05,-0.000381,0.001273,0.0,0.0,0.0,0.0,0.0,0.0,0.0,0.0,0.0,-0.097,0.02,-9.599,0.0,0.0,0.0,0.0,0.0,0.0,0.0,0.0,0.0
1581113309029562452,122,1581113309029412984,,0.86451928174,-0.00321069359615,-0.49854895559,0.866847272696,0.0,0.0,0.0,0.0,0.0,0.0,0.0,0.0,0.0,-0.000187,-7.5e-05,-0.000726,0.0,0.0,0.0,0.0,0.0,0.0,0.0,0.0,0.0,-0.085,0.042,-9.595,0.0,0.0,0.0,0.0,0.0,0.0,0.0,0.0,0.0
1581113309054917918,123,1581113309054807901,,0.864523642015,-0.00320202556364,-0.498541446863,0.866851556878,0.0,0.0,0.0,0.0,0.0,0.0,0.0,0.0,0.0,1.5e-05,0.000483,-0.000646,0.0,0.0,0.0,0.0,0.0,0.0,0.0,0.0,0.0,-0.076,0.044,-9.599,0.0,0.0,0.0,0.0,0.0,0.0,0.0,0.0,0.0
1581113309079704843,124,1581113309079592943,,0.864532426592,-0.00321404071529,-0.498518717114,0.8668645988,0.0,0.0,0.0,0.0,0.0,0.0,0.0,0.0,0.0,-0.00093,-0.000672,0.00148,0.0,0.0,0.0,0.0,0.0,0.0,0.0,0.0,0.0,-0.086,0.044,-9.608,0.0,0.0,0.0,0.0,0.0,0.0,0.0,0.0,0.0
1581113309113081338,125,1581113309112448930,,0.864541198034,-0.00320650904682,-0.498511159769,0.866868991984,0.0,0.0,0.0,0.0,0.0,0.0,0.0,0.0,0.0,-0.000658,0.001384,-0.000154,0.0,0.0,0.0,0.0,0.0,0.0,0.0,0.0,0.0,-0.081,0.016,-9.57,0.0,0.0,0.0,0.0,0.0,0.0,0.0,0.0,0.0
1581113309131141624,126,1581113309130980014,,0.864528040772,-0.00320640938085,-0.498533854175,0.866855940696,0.0,0.0,0.0,0.0,0.0,0.0,0.0,0.0,0.0,0.000531,-0.001239,-5.1e-05,0.0,0.0,0.0,0.0,0.0,0.0,0.0,0.0,0.0,-0.08,0.048,-9.602,0.0,0.0,0.0,0.0,0.0,0.0,0.0,0.0,0.0
1581113309154667660,127,1581113309154509067,,0.864528053577,-0.00321075990932,-0.498533826175,0.866855973885,0.0,0.0,0.0,0.0,0.0,0.0,0.0,0.0,0.0,0.000415,2.5e-05,0.00078,0.0,0.0,0.0,0.0,0.0,0.0,0.0,0.0,0.0,-0.074,0.035,-9.576,0.0,0.0,0.0,0.0,0.0,0.0,0.0,0.0,0.0
1581113309179813058,128,1581113309179661035,,0.864523654886,-0.00321397419514,-0.49853384668,0.866855897875,0.0,0.0,0.0,0.0,0.0,0.0,0.0,0.0,0.0,-0.000383,0.000516,-0.000541,0.0,0.0,0.0,0.0,0.0,0.0,0.0,0.0,0.0,-0.093,0.044,-9.596,0.0,0.0,0.0,0.0,0.0,0.0,0.0,0.0,0.0
1581113309205013657,129,1581113309204900026,,0.864523642015,-0.00320962366649,-0.498533874708,0.866855864582,0.0,0.0,0.0,0.0,0.0,0.0,0.0,0.0,0.0,-8.2e-05,0.00074,-0.000323,0.0,0.0,0.0,0.0,0.0,0.0,0.0,0.0,0.0,-0.085,0.016,-9.583,0.0,0.0,0.0,0.0,0.0,0.0,0.0,0.0,0.0
1581113309230246052,130,1581113309230139017,,0.864532426592,-0.00320644260309,-0.498526289411,0.866860291191,0.0,0.0,0.0,0.0,0.0,0.0,0.0,0.0,0.0,-6.7e-05,0.000447,0.001072,0.0,0.0,0.0,0.0,0.0,0.0,0.0,0.0,0.0,-0.084,0.01,-9.59,0.0,0.0,0.0,0.0,0.0,0.0,0.0,0.0,0.0
1581113309254665764,131,1581113309254554986,,0.864528027901,-0.00320205885214,-0.498533882137,0.86685590744,0.0,0.0,0.0,0.0,0.0,0.0,0.0,0.0,0.0,-0.001638,-0.000762,0.000246,0.0,0.0,0.0,0.0,0.0,0.0,0.0,0.0,0.0,-0.099,0.05,-9.581,0.0,0.0,0.0,0.0,0.0,0.0,0.0,0.0,0.0
1581113309279699350,132,1581113309279530048,,0.864528027901,-0.0032096569927,-0.498526309945,0.866860215078,0.0,0.0,0.0,0.0,0.0,0.0,0.0,0.0,0.0,0.000125,-0.001155,0.000407,0.0,0.0,0.0,0.0,0.0,0.0,0.0,0.0,0.0,-0.079,0.019,-9.594,0.0,0.0,0.0,0.0,0.0,0.0,0.0,0.0,0.0
1581113309304517906,133,1581113309304405927,,0.864536786537,-0.00319777503146,-0.498518780497,0.866864575045,0.0,0.0,0.0,0.0,0.0,0.0,0.0,0.0,0.0,-2e-05,-0.000533,-0.000202,0.0,0.0,0.0,0.0,0.0,0.0,0.0,0.0,0.0,-0.093,0.023,-9.597,0.0,0.0,0.0,0.0,0.0,0.0,0.0,0.0,0.0
1581113309329841127,134,1581113309329700946,,0.864536799474,-0.00320972364439,-0.498511180304,0.866868915871,0.0,0.0,0.0,0.0,0.0,0.0,0.0,0.0,0.0,0.000613,-0.000845,-0.00232,0.0,0.0,0.0,0.0,0.0,0.0,0.0,0.0,0.0,-0.105,0.026,-9.575,0.0,0.0,0.0,0.0,0.0,0.0,0.0,0.0,0.0
1581113309354929660,135,1581113309354773044,,0.864532400783,-0.00319774167744,-0.498526345298,0.866860224615,0.0,0.0,0.0,0.0,0.0,0.0,0.0,0.0,0.0,-0.00017,3.4e-05,0.001284,0.0,0.0,0.0,0.0,0.0,0.0,0.0,0.0,0.0,-0.102,0.041,-9.583,0.0,0.0,0.0,0.0,0.0,0.0,0.0,0.0,0.0
1581113309379674666,136,1581113309379564046,,0.864532400783,-0.00320533992181,-0.498518773134,0.866864532148,0.0,0.0,0.0,0.0,0.0,0.0,0.0,0.0,0.0,5e-06,-0.001718,0.001389,0.0,0.0,0.0,0.0,0.0,0.0,0.0,0.0,0.0,-0.091,0.023,-9.601,0.0,0.0,0.0,0.0,0.0,0.0,0.0,0.0,0.0
1581113309404603334,137,1581113309404453992,,0.864528014964,-0.00319770832318,-0.498533910062,0.866855874119,0.0,0.0,0.0,0.0,0.0,0.0,0.0,0.0,0.0,-0.000423,-0.000418,0.000684,0.0,0.0,0.0,0.0,0.0,0.0,0.0,0.0,0.0,-0.081,0.048,-9.626,0.0,0.0,0.0,0.0,0.0,0.0,0.0,0.0,0.0
1581113309429480551,138,1581113309429362058,,0.864532400783,-0.00319014350852,-0.498533917387,0.866855916949,0.0,0.0,0.0,0.0,0.0,0.0,0.0,0.0,0.0,-0.000971,-0.000955,-0.000346,0.0,0.0,0.0,0.0,0.0,0.0,0.0,0.0,0.0,-0.091,0.035,-9.599,0.0,0.0,0.0,0.0,0.0,0.0,0.0,0.0,0.0
1581113309454995380,139,1581113309454864025,,0.864528014964,-0.00319011019197,-0.498541482113,0.866851566387,0.0,0.0,0.0,0.0,0.0,0.0,0.0,0.0,0.0,-0.000255,-0.000128,-0.000496,0.0,0.0,0.0,0.0,0.0,0.0,0.0,0.0,0.0,-0.091,0.027,-9.604,0.0,0.0,0.0,0.0,0.0,0.0,0.0,0.0,0.0
1581113309480009358,140,1581113309479880094,,0.864523616075,-0.00317812812978,-0.498556646493,0.866842874517,0.0,0.0,0.0,0.0,0.0,0.0,0.0,0.0,0.0,-0.000181,-0.000286,-0.00036,0.0,0.0,0.0,0.0,0.0,0.0,0.0,0.0,0.0,-0.071,0.032,-9.618,0.0,0.0,0.0,0.0,0.0,0.0,0.0,0.0,0.0
1581113309504831515,141,1581113309504686117,,0.864514844107,-0.00316286564792,-0.498586919048,0.866825556485,0.0,0.0,0.0,0.0,0.0,0.0,0.0,0.0,0.0,-0.00052,0.000477,-0.000854,0.0,0.0,0.0,0.0,0.0,0.0,0.0,0.0,0.0,-0.068,0.048,-9.605,0.0,0.0,0.0,0.0,0.0,0.0,0.0,0.0,0.0
1581113309530985997,142,1581113309530802011,,0.864519230124,-0.003155301098,-0.498586926158,0.866825599089,0.0,0.0,0.0,0.0,0.0,0.0,0.0,0.0,0.0,0.000187,0.000216,-0.001232,0.0,0.0,0.0,0.0,0.0,0.0,0.0,0.0,0.0,-0.094,0.03,-9.579,0.0,0.0,0.0,0.0,0.0,0.0,0.0,0.0,0.0
1581113309554549793,143,1581113309554404973,,0.864519217055,-0.00316614595381,-0.498571810513,0.866834182325,0.0,0.0,0.0,0.0,0.0,0.0,0.0,0.0,0.0,-0.000555,-0.000165,0.000726,0.0,0.0,0.0,0.0,0.0,0.0,0.0,0.0,0.0,-0.113,0.005,-9.581,0.0,0.0,0.0,0.0,0.0,0.0,0.0,0.0,0.0
1581113309596011570,144,1581113309595618963,,0.864514844107,-0.00318565944756,-0.498564203882,0.866838480954,0.0,0.0,0.0,0.0,0.0,0.0,0.0,0.0,0.0,0.000212,0.00016,0.000132,0.0,0.0,0.0,0.0,0.0,0.0,0.0,0.0,0.0,-0.082,0.042,-9.584,0.0,0.0,0.0,0.0,0.0,0.0,0.0,0.0,0.0
1581113309606004783,145,1581113309605855941,,0.864506071875,-0.00318559268027,-0.498579332992,0.866829779235,0.0,0.0,0.0,0.0,0.0,0.0,0.0,0.0,0.0,-0.000367,-0.00063,-0.001048,0.0,0.0,0.0,0.0,0.0,0.0,0.0,0.0,0.0,-0.081,0.033,-9.607,0.0,0.0,0.0,0.0,0.0,0.0,0.0,0.0,0.0
1581113309629945120,146,1581113309629827976,,0.864519230124,-0.00317809478446,-0.498564211105,0.866838523757,0.0,0.0,0.0,0.0,0.0,0.0,0.0,0.0,0.0,0.0003,0.001044,-0.000487,0.0,0.0,0.0,0.0,0.0,0.0,0.0,0.0,0.0,-0.098,0.025,-9.583,0.0,0.0,0.0,0.0,0.0,0.0,0.0,0.0,0.0
1581113309655848393,147,1581113309655601024,,0.864510458024,-0.0031780280931,-0.498579340216,0.866829822037,0.0,0.0,0.0,0.0,0.0,0.0,0.0,0.0,0.0,-0.00018,0.00071,7.7e-05,0.0,0.0,0.0,0.0,0.0,0.0,0.0,0.0,0.0,-0.073,0.013,-9.582,0.0,0.0,0.0,0.0,0.0,0.0,0.0,0.0,0.0
1581113309679828287,148,1581113309679661035,,0.864519256064,-0.00318679637099,-0.498564155561,0.866838590315,0.0,0.0,0.0,0.0,0.0,0.0,0.0,0.0,0.0,0.000204,0.001111,0.001188,0.0,0.0,0.0,0.0,0.0,0.0,0.0,0.0,0.0,-0.069,0.046,-9.583,0.0,0.0,0.0,0.0,0.0,0.0,0.0,0.0,0.0
1581113309704986106,149,1581113309704881906,,0.864523629078,-0.00317488091456,-0.498564190603,0.866838599767,0.0,0.0,0.0,0.0,0.0,0.0,0.0,0.0,0.0,-0.00159,0.000183,-0.001406,0.0,0.0,0.0,0.0,0.0,0.0,0.0,0.0,0.0,-0.078,0.023,-9.591,0.0,0.0,0.0,0.0,0.0,0.0,0.0,0.0,0.0
1581113309730359518,150,1581113309730252027,,0.86453238778,-0.00316299872691,-0.498556660824,0.866842959923,0.0,0.0,0.0,0.0,0.0,0.0,0.0,0.0,0.0,3.6e-05,0.000655,0.002201,0.0,0.0,0.0,0.0,0.0,0.0,0.0,0.0,0.0,-0.075,0.048,-9.591,0.0,0.0,0.0,0.0,0.0,0.0,0.0,0.0,0.0
1581113309755012753,151,1581113309754894971,,0.864528014964,-0.00315971842163,-0.498571769567,0.866834334139,0.0,0.0,0.0,0.0,0.0,0.0,0.0,0.0,0.0,-0.000225,-0.000275,0.001135,0.0,0.0,0.0,0.0,0.0,0.0,0.0,0.0,0.0,-0.091,0.036,-9.582,0.0,0.0,0.0,0.0,0.0,0.0,0.0,0.0,0.0
1581113309779702050,152,1581113309779592990,,0.864510458024,-0.00314763696388,-0.498609626502,0.866812588354,0.0,0.0,0.0,0.0,0.0,0.0,0.0,0.0,0.0,-0.000944,0.000379,0.00106,0.0,0.0,0.0,0.0,0.0,0.0,0.0,0.0,0.0,-0.07,0.052,-9.606,0.0,0.0,0.0,0.0,0.0,0.0,0.0,0.0,0.0
1581113309819270851,153,1581113309818927049,,0.86449729938,-0.0031399398973,-0.498639890702,0.866795225538,0.0,0.0,0.0,0.0,0.0,0.0,0.0,0.0,0.0,0.00096,-0.000157,0.000671,0.0,0.0,0.0,0.0,0.0,0.0,0.0,0.0,0.0,-0.093,0.031,-9.606,0.0,0.0,0.0,0.0,0.0,0.0,0.0,0.0,0.0
1581113309831226537,154,1581113309831075906,,0.86450168566,-0.00314757057338,-0.498624755159,0.866803885843,0.0,0.0,0.0,0.0,0.0,0.0,0.0,0.0,0.0,-0.000648,-9.7e-05,0.000416,0.0,0.0,0.0,0.0,0.0,0.0,0.0,0.0,0.0,-0.098,0.004,-9.575,0.0,0.0,0.0,0.0,0.0,0.0,0.0,0.0,0.0
1581113309854798415,155,1581113309854643106,,0.864506084877,-0.00314435753462,-0.498624734775,0.866803961439,0.0,0.0,0.0,0.0,0.0,0.0,0.0,0.0,0.0,-0.000265,-0.000325,0.00049,0.0,0.0,0.0,0.0,0.0,0.0,0.0,0.0,0.0,-0.073,0.037,-9.608,0.0,0.0,0.0,0.0,0.0,0.0,0.0,0.0,0.0
1581113309879578262,156,1581113309879465103,,0.864510458024,-0.00314003937022,-0.498617197885,0.866808279603,0.0,0.0,0.0,0.0,0.0,0.0,0.0,0.0,0.0,-0.000861,-0.000816,4.6e-05,0.0,0.0,0.0,0.0,0.0,0.0,0.0,0.0,0.0,-0.083,0.048,-9.619,0.0,0.0,0.0,0.0,0.0,0.0,0.0,0.0,0.0
1581113309904661391,157,1581113309904556035,,0.86449729938,-0.0031399398973,-0.498639890702,0.866795225538,0.0,0.0,0.0,0.0,0.0,0.0,0.0,0.0,0.0,-0.001343,6.1e-05,0.000436,0.0,0.0,0.0,0.0,0.0,0.0,0.0,0.0,0.0,-0.083,0.03,-9.594,0.0,0.0,0.0,0.0,0.0,0.0,0.0,0.0,0.0
1581113309929376284,158,1581113309929250001,,0.864497273177,-0.00313883460156,-0.49863237429,0.866799467964,0.0,0.0,0.0,0.0,0.0,0.0,0.0,0.0,0.0,-0.001112,-0.000372,-0.000258,0.0,0.0,0.0,0.0,0.0,0.0,0.0,0.0,0.0,-0.069,0.035,-9.613,0.0,0.0,0.0,0.0,0.0,0.0,0.0,0.0,0.0
1581113309954813881,159,1581113309954668998,,0.864506045672,-0.00313890125658,-0.49861724571,0.866808170609,0.0,0.0,0.0,0.0,0.0,0.0,0.0,0.0,0.0,0.000317,-0.000349,0.000177,0.0,0.0,0.0,0.0,0.0,0.0,0.0,0.0,0.0,-0.063,0.05,-9.593,0.0,0.0,0.0,0.0,0.0,0.0,0.0,0.0,0.0
1581113309979600303,160,1581113309979487895,,0.864501672592,-0.00312802415834,-0.498639925017,0.866795234791,0.0,0.0,0.0,0.0,0.0,0.0,0.0,0.0,0.0,-0.000454,0.000935,-0.000886,0.0,0.0,0.0,0.0,0.0,0.0,0.0,0.0,0.0,-0.091,0.05,-9.605,0.0,0.0,0.0,0.0,0.0,0.0,0.0,0.0,0.0
1581113310004696247,161,1581113310004584074,,0.864506045672,-0.00313130356851,-0.498624816923,0.866803861867,0.0,0.0,0.0,0.0,0.0,0.0,0.0,0.0,0.0,0.000175,-0.000169,-0.001303,0.0,0.0,0.0,0.0,0.0,0.0,0.0,0.0,0.0,-0.079,0.048,-9.583,0.0,0.0,0.0,0.0,0.0,0.0,0.0,0.0,0.0
1581113310029923829,162,1581113310029695034,,0.864523563405,-0.00311513671192,-0.49860218519,0.866816891385,0.0,0.0,0.0,0.0,0.0,0.0,0.0,0.0,0.0,0.000255,-0.000284,-0.000874,0.0,0.0,0.0,0.0,0.0,0.0,0.0,0.0,0.0,-0.088,0.032,-9.567,0.0,0.0,0.0,0.0,0.0,0.0,0.0,0.0,0.0
1581113310054623888,163,1581113310054480075,,0.864523576672,-0.00311948783669,-0.498602157987,0.866816924735,0.0,0.0,0.0,0.0,0.0,0.0,0.0,0.0,0.0,0.000108,-0.001106,-0.000668,0.0,0.0,0.0,0.0,0.0,0.0,0.0,0.0,0.0,-0.072,0.031,-9.603,0.0,0.0,0.0,0.0,0.0,0.0,0.0,0.0,0.0
1581113310079422979,164,1581113310079319000,,0.864523589872,-0.00313143672476,-0.498594559456,0.866821266629,0.0,0.0,0.0,0.0,0.0,0.0,0.0,0.0,0.0,7.2e-05,1e-05,-0.000792,0.0,0.0,0.0,0.0,0.0,0.0,0.0,0.0,0.0,-0.086,0.031,-9.595,0.0,0.0,0.0,0.0,0.0,0.0,0.0,0.0,0.0
1581113310104808801,165,1581113310104660987,,0.864532361577,-0.00313150330146,-0.498579430495,0.866829968613,0.0,0.0,0.0,0.0,0.0,0.0,0.0,0.0,0.0,-0.000633,-8.3e-05,0.000524,0.0,0.0,0.0,0.0,0.0,0.0,0.0,0.0,0.0,-0.089,0.039,-9.604,0.0,0.0,0.0,0.0,0.0,0.0,0.0,0.0,0.0
1581113310129876202,166,1581113310129713058,,0.864527975757,-0.00313147001323,-0.498586994995,0.866825617654,0.0,0.0,0.0,0.0,0.0,0.0,0.0,0.0,0.0,0.000616,-0.000957,-0.001792,0.0,0.0,0.0,0.0,0.0,0.0,0.0,0.0,0.0,-0.077,0.024,-9.578,0.0,0.0,0.0,0.0,0.0,0.0,0.0,0.0,0.0
1581113310154808489,167,1581113310154644012,,0.864523589872,-0.00313143672476,-0.498594559456,0.866821266629,0.0,0.0,0.0,0.0,0.0,0.0,0.0,0.0,0.0,-0.000794,-0.001251,0.000717,0.0,0.0,0.0,0.0,0.0,0.0,0.0,0.0,0.0,-0.112,0.043,-9.576,0.0,0.0,0.0,0.0,0.0,0.0,0.0,0.0,0.0
1581113310179881275,168,1581113310179632902,,0.864527962557,-0.00313471696357,-0.498579450968,0.866829892706,0.0,0.0,0.0,0.0,0.0,0.0,0.0,0.0,0.0,0.0003,0.000332,0.001323,0.0,0.0,0.0,0.0,0.0,0.0,0.0,0.0,0.0,-0.083,0.048,-9.604,0.0,0.0,0.0,0.0,0.0,0.0,0.0,0.0,0.0
1581113310204368338,169,1581113310204269886,,0.864541119818,-0.00313481713877,-0.498556757244,0.866842945189,0.0,0.0,0.0,0.0,0.0,0.0,0.0,0.0,0.0,0.000922,-0.000822,-0.001283,0.0,0.0,0.0,0.0,0.0,0.0,0.0,0.0,0.0,-0.089,0.039,-9.59,0.0,0.0,0.0,0.0,0.0,0.0,0.0,0.0,0.0
1581113310229885597,170,1581113310229659080,,0.864541119818,-0.00313481713877,-0.498556757244,0.866842945189,0.0,0.0,0.0,0.0,0.0,0.0,0.0,0.0,0.0,0.000695,0.000877,0.001958,0.0,0.0,0.0,0.0,0.0,0.0,0.0,0.0,0.0,-0.083,0.025,-9.596,0.0,0.0,0.0,0.0,0.0,0.0,0.0,0.0,0.0
1581113310254810301,171,1581113310254651069,,0.864541106551,-0.00313046641019,-0.498556784581,0.866842911764,0.0,0.0,0.0,0.0,0.0,0.0,0.0,0.0,0.0,-0.000204,0.000631,-0.001332,0.0,0.0,0.0,0.0,0.0,0.0,0.0,0.0,0.0,-0.087,0.036,-9.604,0.0,0.0,0.0,0.0,0.0,0.0,0.0,0.0,0.0
1581113310279971041,172,1581113310279829025,,0.864523563405,-0.00313793062533,-0.498579471497,0.866829816591,0.0,0.0,0.0,0.0,0.0,0.0,0.0,0.0,0.0,-0.000825,5e-05,-0.001094,0.0,0.0,0.0,0.0,0.0,0.0,0.0,0.0,0.0,-0.098,0.036,-9.601,0.0,0.0,0.0,0.0,0.0,0.0,0.0,0.0,0.0
1581113310304606007,173,1581113310304461002,,0.864523576672,-0.00314228155189,-0.498579444094,0.866829850054,0.0,0.0,0.0,0.0,0.0,0.0,0.0,0.0,0.0,0.000765,-0.000371,-0.00145,0.0,0.0,0.0,0.0,0.0,0.0,0.0,0.0,0.0,-0.079,0.044,-9.574,0.0,0.0,0.0,0.0,0.0,0.0,0.0,0.0,0.0
1581113310329588193,174,1581113310329435110,,0.864527975757,-0.00314666584214,-0.498571852117,0.866834234345,0.0,0.0,0.0,0.0,0.0,0.0,0.0,0.0,0.0,0.000754,-0.000206,-0.000645,0.0,0.0,0.0,0.0,0.0,0.0,0.0,0.0,0.0,-0.084,0.043,-9.611,0.0,0.0,0.0,0.0,0.0,0.0,0.0,0.0,0.0
1581113310355811164,175,1581113310355624914,,0.86454550544,-0.00314244869919,-0.498541621032,0.866851603861,0.0,0.0,0.0,0.0,0.0,0.0,0.0,0.0,0.0,-0.001081,2e-05,0.000464,0.0,0.0,0.0,0.0,0.0,0.0,0.0,0.0,0.0,-0.089,0.029,-9.603,0.0,0.0,0.0,0.0,0.0,0.0,0.0,0.0,0.0
1581113310379891132,176,1581113310379774093,,0.864554276486,-0.00312731914265,-0.498541634738,0.8668516891,0.0,0.0,0.0,0.0,0.0,0.0,0.0,0.0,0.0,-5.7e-05,0.000306,-0.000299,0.0,0.0,0.0,0.0,0.0,0.0,0.0,0.0,0.0,-0.079,0.029,-9.58,0.0,0.0,0.0,0.0,0.0,0.0,0.0,0.0,0.0
1581113310405149912,177,1581113310405041933,,0.864567432562,-0.00311982099349,-0.498526512041,0.866860432681,0.0,0.0,0.0,0.0,0.0,0.0,0.0,0.0,0.0,-0.000988,0.000113,-0.001031,0.0,0.0,0.0,0.0,0.0,0.0,0.0,0.0,0.0,-0.083,0.038,-9.599,0.0,0.0,0.0,0.0,0.0,0.0,0.0,0.0,0.0
1581113310429911751,178,1581113310429692983,,0.864554263219,-0.00312296854604,-0.49854166201,0.866851655714,0.0,0.0,0.0,0.0,0.0,0.0,0.0,0.0,0.0,-0.000686,0.000602,-0.00022,0.0,0.0,0.0,0.0,0.0,0.0,0.0,0.0,0.0,-0.087,0.051,-9.593,0.0,0.0,0.0,0.0,0.0,0.0,0.0,0.0,0.0
1581113310454608454,179,1581113310454453945,,0.864558635311,-0.00311105317045,-0.498541695908,0.866851664858,0.0,0.0,0.0,0.0,0.0,0.0,0.0,0.0,0.0,-0.000454,0.00078,-0.001142,0.0,0.0,0.0,0.0,0.0,0.0,0.0,0.0,0.0,-0.078,0.029,-9.58,0.0,0.0,0.0,0.0,0.0,0.0,0.0,0.0,0.0
1581113310480172633,180,1581113310480060100,,0.864571791189,-0.00310355520906,-0.498526573042,0.86686040845,0.0,0.0,0.0,0.0,0.0,0.0,0.0,0.0,0.0,-1.7e-05,-8.8e-05,-5.2e-05,0.0,0.0,0.0,0.0,0.0,0.0,0.0,0.0,0.0,-0.099,0.013,-9.587,0.0,0.0,0.0,0.0,0.0,0.0,0.0,0.0,0.0
1581113310504877513,181,1581113310504720926,,0.864567419295,-0.00310787233133,-0.498534110705,0.866856091328,0.0,0.0,0.0,0.0,0.0,0.0,0.0,0.0,0.0,-0.000198,-0.001219,0.001664,0.0,0.0,0.0,0.0,0.0,0.0,0.0,0.0,0.0,-0.082,0.036,-9.605,0.0,0.0,0.0,0.0,0.0,0.0,0.0,0.0,0.0
1581113310532473095,182,1581113310532264947,,0.864571804522,-0.00310030751421,-0.498534117358,0.866856133754,0.0,0.0,0.0,0.0,0.0,0.0,0.0,0.0,0.0,0.000269,-0.000271,-0.000853,0.0,0.0,0.0,0.0,0.0,0.0,0.0,0.0,0.0,-0.093,0.016,-9.568,0.0,0.0,0.0,0.0,0.0,0.0,0.0,0.0,0.0
1581113310555073187,183,1581113310554965972,,0.864554276486,-0.00310452508789,-0.498564348969,0.866838764375,0.0,0.0,0.0,0.0,0.0,0.0,0.0,0.0,0.0,2.5e-05,0.000973,-0.000221,0.0,0.0,0.0,0.0,0.0,0.0,0.0,0.0,0.0,-0.083,0.033,-9.603,0.0,0.0,0.0,0.0,0.0,0.0,0.0,0.0,0.0
1581113310580505121,184,1581113310580400943,,0.864549890996,-0.00310449184803,-0.498571913545,0.866834413548,0.0,0.0,0.0,0.0,0.0,0.0,0.0,0.0,0.0,-0.000177,-0.000285,0.000971,0.0,0.0,0.0,0.0,0.0,0.0,0.0,0.0,0.0,-0.099,0.0,-9.575,0.0,0.0,0.0,0.0,0.0,0.0,0.0,0.0,0.0
1581113310604556945,185,1581113310604449987,,0.86453673413,-0.00311198991889,-0.498587035861,0.866825669306,0.0,0.0,0.0,0.0,0.0,0.0,0.0,0.0,0.0,0.00028,-0.000651,-0.000436,0.0,0.0,0.0,0.0,0.0,0.0,0.0,0.0,0.0,-0.097,0.026,-9.597,0.0,0.0,0.0,0.0,0.0,0.0,0.0,0.0,0.0
1581113310630617512,186,1581113310630502939,,0.86453674733,-0.00311634091146,-0.498587008685,0.866825702552,0.0,0.0,0.0,0.0,0.0,0.0,0.0,0.0,0.0,-1.3e-05,-0.000928,0.001328,0.0,0.0,0.0,0.0,0.0,0.0,0.0,0.0,0.0,-0.122,0.029,-9.604,0.0,0.0,0.0,0.0,0.0,0.0,0.0,0.0,0.0
1581113310655029952,187,1581113310654915094,,0.864541133018,-0.00312397196275,-0.498571872821,0.866834361989,0.0,0.0,0.0,0.0,0.0,0.0,0.0,0.0,0.0,-0.000119,-0.000717,0.001238,0.0,0.0,0.0,0.0,0.0,0.0,0.0,0.0,0.0,-0.087,0.027,-9.616,0.0,0.0,0.0,0.0,0.0,0.0,0.0,0.0,0.0
1581113310680792969,188,1581113310680596113,,0.864549904196,-0.00312403846208,-0.498556743632,0.866843063577,0.0,0.0,0.0,0.0,0.0,0.0,0.0,0.0,0.0,0.000244,-0.000405,0.002137,0.0,0.0,0.0,0.0,0.0,0.0,0.0,0.0,0.0,-0.081,0.024,-9.608,0.0,0.0,0.0,0.0,0.0,0.0,0.0,0.0,0.0
1581113310704595934,189,1581113310704451084,,0.864554276486,-0.00311972104894,-0.498549206224,0.866847380991,0.0,0.0,0.0,0.0,0.0,0.0,0.0,0.0,0.0,-0.000488,-0.000231,-0.000559,0.0,0.0,0.0,0.0,0.0,0.0,0.0,0.0,0.0,-0.046,0.027,-9.615,0.0,0.0,0.0,0.0,0.0,0.0,0.0,0.0,0.0
1581113310730448413,190,1581113310730340957,,0.864567432562,-0.00311982099349,-0.498526512041,0.866860432681,0.0,0.0,0.0,0.0,0.0,0.0,0.0,0.0,0.0,-0.000256,0.000673,-0.001288,0.0,0.0,0.0,0.0,0.0,0.0,0.0,0.0,0.0,-0.087,0.031,-9.589,0.0,0.0,0.0,0.0,0.0,0.0,0.0,0.0,0.0
1581113310754822405,191,1581113310754661083,,0.864571817789,-0.00312745255248,-0.498511375602,0.866869090958,0.0,0.0,0.0,0.0,0.0,0.0,0.0,0.0,0.0,0.000276,-3.2e-05,0.002223,0.0,0.0,0.0,0.0,0.0,0.0,0.0,0.0,0.0,-0.086,0.023,-9.607,0.0,0.0,0.0,0.0,0.0,0.0,0.0,0.0,0.0
1581113310779797006,192,1581113310779643058,,0.864563034002,-0.00313063369415,-0.498518960949,0.866864664583,0.0,0.0,0.0,0.0,0.0,0.0,0.0,0.0,0.0,-0.000799,0.000918,-0.00197,0.0,0.0,0.0,0.0,0.0,0.0,0.0,0.0,0.0,-0.099,0.018,-9.612,0.0,0.0,0.0,0.0,0.0,0.0,0.0,0.0,0.0
1581113310805829998,193,1581113310805649042,,0.864563034002,-0.00313823208029,-0.498511389305,0.866868972258,0.0,0.0,0.0,0.0,0.0,0.0,0.0,0.0,0.0,-0.00107,-0.000314,0.000791,0.0,0.0,0.0,0.0,0.0,0.0,0.0,0.0,0.0,-0.093,0.034,-9.598,0.0,0.0,0.0,0.0,0.0,0.0,0.0,0.0,0.0
1581113310830730846,194,1581113310830601930,,0.86457617635,-0.00312638386097,-0.498496293616,0.866877681993,0.0,0.0,0.0,0.0,0.0,0.0,0.0,0.0,0.0,-0.00076,9.1e-05,0.000735,0.0,0.0,0.0,0.0,0.0,0.0,0.0,0.0,0.0,-0.1,0.026,-9.578,0.0,0.0,0.0,0.0,0.0,0.0,0.0,0.0,0.0
1581113310854557962,195,1581113310854401111,,0.86457620295,-0.00313508426213,-0.498496238975,0.866877748904,0.0,0.0,0.0,0.0,0.0,0.0,0.0,0.0,0.0,0.000607,0.001077,2.4e-05,0.0,0.0,0.0,0.0,0.0,0.0,0.0,0.0,0.0,-0.082,0.035,-9.577,0.0,0.0,0.0,0.0,0.0,0.0,0.0,0.0,0.0
1581113310881608152,196,1581113310881505012,,0.864598127767,-0.00312765266006,-0.498465985759,0.866895191764,0.0,0.0,0.0,0.0,0.0,0.0,0.0,0.0,0.0,-0.000126,0.001087,0.000765,0.0,0.0,0.0,0.0,0.0,0.0,0.0,0.0,0.0,-0.092,0.023,-9.546,0.0,0.0,0.0,0.0,0.0,0.0,0.0,0.0,0.0
1581113310905985300,197,1581113310905875921,,0.864606897233,-0.00312771936069,-0.498450855508,0.866903891505,0.0,0.0,0.0,0.0,0.0,0.0,0.0,0.0,0.0,0.000143,-0.000215,-0.002378,0.0,0.0,0.0,0.0,0.0,0.0,0.0,0.0,0.0,-0.102,0.034,-9.551,0.0,0.0,0.0,0.0,0.0,0.0,0.0,0.0,0.0
1581113310930658357,198,1581113310930540084,,0.864602512533,-0.00312768601049,-0.498458420653,0.866899541667,0.0,0.0,0.0,0.0,0.0,0.0,0.0,0.0,0.0,-0.0002,-2.5e-05,-0.000154,0.0,0.0,0.0,0.0,0.0,0.0,0.0,0.0,0.0,-0.072,0.058,-9.616,0.0,0.0,0.0,0.0,0.0,0.0,0.0,0.0,0.0
1581113310964435279,199,1581113310964200973,,0.864624422108,-0.00311590445538,-0.498428193847,0.866916949797,0.0,0.0,0.0,0.0,0.0,0.0,0.0,0.0,0.0,-0.000828,0.000494,-0.00148,0.0,0.0,0.0,0.0,0.0,0.0,0.0,0.0,0.0,-0.081,0.015,-9.578,0.0,0.0,0.0,0.0,0.0,0.0,0.0,0.0,0.0
1581113310981437862,200,1581113310981290102,,0.864624435376,-0.00312785275908,-0.49842059455,0.866921290194,0.0,0.0,0.0,0.0,0.0,0.0,0.0,0.0,0.0,-0.000289,-0.000642,0.000913,0.0,0.0,0.0,0.0,0.0,0.0,0.0,0.0,0.0,-0.082,0.025,-9.637,0.0,0.0,0.0,0.0,0.0,0.0,0.0,0.0,0.0
1581113311005941689,201,1581113311005830049,,0.864615666436,-0.00312778606036,-0.498435725105,0.866912590981,0.0,0.0,0.0,0.0,0.0,0.0,0.0,0.0,0.0,-0.000593,-0.000668,0.000483,0.0,0.0,0.0,0.0,0.0,0.0,0.0,0.0,0.0,-0.079,0.034,-9.596,0.0,0.0,0.0,0.0,0.0,0.0,0.0,0.0,0.0
1581113311030644232,202,1581113311030536890,,0.864624448578,-0.00312460366798,-0.498428139389,0.86691701642,0.0,0.0,0.0,0.0,0.0,0.0,0.0,0.0,0.0,0.000209,0.000309,-0.000218,0.0,0.0,0.0,0.0,0.0,0.0,0.0,0.0,0.0,-0.072,0.021,-9.588,0.0,0.0,0.0,0.0,0.0,0.0,0.0,0.0,0.0
1581113311061541103,203,1581113311061275959,,0.86463323039,-0.00312901963217,-0.49841298147,0.866925748712,0.0,0.0,0.0,0.0,0.0,0.0,0.0,0.0,0.0,0.000809,3.9e-05,0.001638,0.0,0.0,0.0,0.0,0.0,0.0,0.0,0.0,0.0,-0.11,0.032,-9.577,0.0,0.0,0.0,0.0,0.0,0.0,0.0,0.0,0.0
1581113311081261184,204,1581113311081127882,,0.864624448578,-0.00311700511222,-0.498435711467,0.866912709198,0.0,0.0,0.0,0.0,0.0,0.0,0.0,0.0,0.0,-0.000203,0.001288,0.00093,0.0,0.0,0.0,0.0,0.0,0.0,0.0,0.0,0.0,-0.114,0.027,-9.586,0.0,0.0,0.0,0.0,0.0,0.0,0.0,0.0,0.0
1581113311106334742,205,1581113311106213092,,0.864628819747,-0.00311268871352,-0.498428173389,0.866917025597,0.0,0.0,0.0,0.0,0.0,0.0,0.0,0.0,0.0,-0.000565,-0.000596,0.00101,0.0,0.0,0.0,0.0,0.0,0.0,0.0,0.0,0.0,-0.087,0.04,-9.594,0.0,0.0,0.0,0.0,0.0,0.0,0.0,0.0,0.0
1581113311131158130,206,1581113311131056070,,0.864620050939,-0.00312022075028,-0.498435731896,0.866912633502,0.0,0.0,0.0,0.0,0.0,0.0,0.0,0.0,0.0,-1.4e-05,6.9e-05,-0.000179,0.0,0.0,0.0,0.0,0.0,0.0,0.0,0.0,0.0,-0.085,0.016,-9.59,0.0,0.0,0.0,0.0,0.0,0.0,0.0,0.0,0.0
1581113311156058123,207,1581113311155946016,,0.864624448578,-0.00311700511222,-0.498435711467,0.866912709198,0.0,0.0,0.0,0.0,0.0,0.0,0.0,0.0,0.0,0.000691,0.000112,-0.00096,0.0,0.0,0.0,0.0,0.0,0.0,0.0,0.0,0.0,-0.096,0.038,-9.585,0.0,0.0,0.0,0.0,0.0,0.0,0.0,0.0,0.0
1581113311180645656,208,1581113311180541992,,0.864628832949,-0.00312463691324,-0.498420574091,0.866921365993,0.0,0.0,0.0,0.0,0.0,0.0,0.0,0.0,0.0,-8.9e-05,0.000393,-0.000553,0.0,0.0,0.0,0.0,0.0,0.0,0.0,0.0,0.0,-0.095,0.028,-9.592,0.0,0.0,0.0,0.0,0.0,0.0,0.0,0.0,0.0
1581113311205507579,209,1581113311205404043,,0.864646369774,-0.00312476989192,-0.498390312523,0.866938763625,0.0,0.0,0.0,0.0,0.0,0.0,0.0,0.0,0.0,-0.000215,0.000994,-0.000401,0.0,0.0,0.0,0.0,0.0,0.0,0.0,0.0,0.0,-0.089,0.043,-9.547,0.0,0.0,0.0,0.0,0.0,0.0,0.0,0.0,0.0
1581113311230856179,210,1581113311230700969,,0.864663905546,-0.00312490286679,-0.498360050348,0.866956160201,0.0,0.0,0.0,0.0,0.0,0.0,0.0,0.0,0.0,-0.00028,0.000429,0.001586,0.0,0.0,0.0,0.0,0.0,0.0,0.0,0.0,0.0,-0.101,0.054,-9.601,0.0,0.0,0.0,0.0,0.0,0.0,0.0,0.0,0.0
1581113311255987997,211,1581113311255873918,,0.864659521702,-0.00312486962343,-0.498367615949,0.866951811156,0.0,0.0,0.0,0.0,0.0,0.0,0.0,0.0,0.0,-0.00109,-4.8e-05,-0.000695,0.0,0.0,0.0,0.0,0.0,0.0,0.0,0.0,0.0,-0.08,0.034,-9.602,0.0,0.0,0.0,0.0,0.0,0.0,0.0,0.0,0.0
1581113311280462227,212,1581113311280363082,,0.864659508499,-0.00312811954442,-0.498360070812,0.866956084403,0.0,0.0,0.0,0.0,0.0,0.0,0.0,0.0,0.0,0.000136,-0.000556,0.001598,0.0,0.0,0.0,0.0,0.0,0.0,0.0,0.0,0.0,-0.079,0.028,-9.623,0.0,0.0,0.0,0.0,0.0,0.0,0.0,0.0,0.0
1581113311305806081,213,1581113311305634021,,0.864655111321,-0.0031237371189,-0.498367663691,0.866951701977,0.0,0.0,0.0,0.0,0.0,0.0,0.0,0.0,0.0,0.000343,-6.1e-05,0.000276,0.0,0.0,0.0,0.0,0.0,0.0,0.0,0.0,0.0,-0.089,0.018,-9.573,0.0,0.0,0.0,0.0,0.0,0.0,0.0,0.0,0.0
1581113311343751120,214,1581113311343384981,,0.864655111321,-0.00311613809153,-0.498375235974,0.866947395425,0.0,0.0,0.0,0.0,0.0,0.0,0.0,0.0,0.0,-0.000726,0.000309,-0.000478,0.0,0.0,0.0,0.0,0.0,0.0,0.0,0.0,0.0,-0.083,0.042,-9.603,0.0,0.0,0.0,0.0,0.0,0.0,0.0,0.0,0.0
1581113311356384259,215,1581113311356235980,,0.864650740614,-0.00312045392594,-0.498382774287,0.866943079591,0.0,0.0,0.0,0.0,0.0,0.0,0.0,0.0,0.0,0.000428,4.7e-05,-0.001263,0.0,0.0,0.0,0.0,0.0,0.0,0.0,0.0,0.0,-0.071,0.016,-9.588,0.0,0.0,0.0,0.0,0.0,0.0,0.0,0.0,0.0
1581113311380575094,216,1581113311380472898,,0.864655124589,-0.0031204872358,-0.498375208762,0.866947428768,0.0,0.0,0.0,0.0,0.0,0.0,0.0,0.0,0.0,0.000267,8.6e-05,0.000412,0.0,0.0,0.0,0.0,0.0,0.0,0.0,0.0,0.0,-0.088,0.036,-9.613,0.0,0.0,0.0,0.0,0.0,0.0,0.0,0.0,0.0
1581113311406011839,217,1581113311405891895,,0.864663879075,-0.00311620484257,-0.498360104812,0.866956093582,0.0,0.0,0.0,0.0,0.0,0.0,0.0,0.0,0.0,-0.000497,-0.001293,0.001281,0.0,0.0,0.0,0.0,0.0,0.0,0.0,0.0,0.0,-0.099,0.015,-9.585,0.0,0.0,0.0,0.0,0.0,0.0,0.0,0.0,0.0
1581113311441515345,218,1581113311441040992,,0.864668276122,-0.00312058716394,-0.498352511961,0.866960475903,0.0,0.0,0.0,0.0,0.0,0.0,0.0,0.0,0.0,-0.000633,-1.9e-05,2e-06,0.0,0.0,0.0,0.0,0.0,0.0,0.0,0.0,0.0,-0.097,0.023,-9.606,0.0,0.0,0.0,0.0,0.0,0.0,0.0,0.0,0.0
1581113311459407448,219,1581113311459252119,,0.864646356572,-0.00312042061584,-0.498390339773,0.866938730348,0.0,0.0,0.0,0.0,0.0,0.0,0.0,0.0,0.0,0.000245,0.000127,-0.001357,0.0,0.0,0.0,0.0,0.0,0.0,0.0,0.0,0.0,-0.086,0.018,-9.62,0.0,0.0,0.0,0.0,0.0,0.0,0.0,0.0,0.0
1581113311481231884,220,1581113311481116056,,0.864641985666,-0.00313233542967,-0.498390305669,0.866938721142,0.0,0.0,0.0,0.0,0.0,0.0,0.0,0.0,0.0,-0.000994,-0.001164,-0.000475,0.0,0.0,0.0,0.0,0.0,0.0,0.0,0.0,0.0,-0.055,0.039,-9.606,0.0,0.0,0.0,0.0,0.0,0.0,0.0,0.0,0.0
1581113311505956269,221,1581113311505848884,,0.864637601493,-0.00312470340306,-0.498405443383,0.866930064941,0.0,0.0,0.0,0.0,0.0,0.0,0.0,0.0,0.0,-0.000159,-0.000511,0.000312,0.0,0.0,0.0,0.0,0.0,0.0,0.0,0.0,0.0,-0.093,0.032,-9.596,0.0,0.0,0.0,0.0,0.0,0.0,0.0,0.0,0.0
1581113311532186505,222,1581113311531982898,,0.864637601493,-0.0031323021474,-0.498397871117,0.866934371833,0.0,0.0,0.0,0.0,0.0,0.0,0.0,0.0,0.0,-0.00033,-0.000667,0.000609,0.0,0.0,0.0,0.0,0.0,0.0,0.0,0.0,0.0,-0.083,0.03,-9.574,0.0,0.0,0.0,0.0,0.0,0.0,0.0,0.0,0.0
1581113311555810060,223,1581113311555663108,,0.864633204052,-0.00312791945684,-0.498405463843,0.866929989142,0.0,0.0,0.0,0.0,0.0,0.0,0.0,0.0,0.0,2e-06,0.000314,0.000532,0.0,0.0,0.0,0.0,0.0,0.0,0.0,0.0,0.0,-0.091,0.041,-9.588,0.0,0.0,0.0,0.0,0.0,0.0,0.0,0.0,0.0
1581113311580651851,224,1581113311580517053,,0.864641959196,-0.0031236368774,-0.498390360263,0.866938654445,0.0,0.0,0.0,0.0,0.0,0.0,0.0,0.0,0.0,-9e-05,0.000328,0.000954,0.0,0.0,0.0,0.0,0.0,0.0,0.0,0.0,0.0,-0.092,0.041,-9.585,0.0,0.0,0.0,0.0,0.0,0.0,0.0,0.0,0.0
1581113311605536256,225,1581113311605386972,,0.864655124589,-0.0031204872358,-0.498375208762,0.866947428768,0.0,0.0,0.0,0.0,0.0,0.0,0.0,0.0,0.0,-0.000143,-0.001056,0.00096,0.0,0.0,0.0,0.0,0.0,0.0,0.0,0.0,0.0,-0.065,0.05,-9.617,0.0,0.0,0.0,0.0,0.0,0.0,0.0,0.0,0.0
1581113311630815351,226,1581113311630657911,,0.864668249519,-0.00310429014013,-0.498360138604,0.866956102705,0.0,0.0,0.0,0.0,0.0,0.0,0.0,0.0,0.0,-0.000157,-0.000963,-0.001736,0.0,0.0,0.0,0.0,0.0,0.0,0.0,0.0,0.0,-0.091,0.009,-9.598,0.0,0.0,0.0,0.0,0.0,0.0,0.0,0.0,0.0
1581113311655767394,227,1581113311655658960,,0.864655111321,-0.00310094026308,-0.498390380316,0.866938781925,0.0,0.0,0.0,0.0,0.0,0.0,0.0,0.0,0.0,-0.000564,0.000818,0.001452,0.0,0.0,0.0,0.0,0.0,0.0,0.0,0.0,0.0,-0.067,0.014,-9.583,0.0,0.0,0.0,0.0,0.0,0.0,0.0,0.0,0.0
1581113311681181004,228,1581113311681066036,,0.864681400459,-0.00308159306879,-0.498360158228,0.866956229904,0.0,0.0,0.0,0.0,0.0,0.0,0.0,0.0,0.0,-0.001144,-0.000608,0.000193,0.0,0.0,0.0,0.0,0.0,0.0,0.0,0.0,0.0,-0.087,0.036,-9.592,0.0,0.0,0.0,0.0,0.0,0.0,0.0,0.0,0.0
1581113311706390922,229,1581113311706238031,,0.864677003478,-0.0030848097466,-0.498360178663,0.86695615421,0.0,0.0,0.0,0.0,0.0,0.0,0.0,0.0,0.0,-3.4e-05,0.000739,0.000553,0.0,0.0,0.0,0.0,0.0,0.0,0.0,0.0,0.0,-0.093,0.052,-9.596,0.0,0.0,0.0,0.0,0.0,0.0,0.0,0.0,0.0
1581113311731322139,230,1581113311731174945,,0.864681387058,-0.00308484313996,-0.498352613025,0.86696050319,0.0,0.0,0.0,0.0,0.0,0.0,0.0,0.0,0.0,-0.001198,-0.001072,0.000907,0.0,0.0,0.0,0.0,0.0,0.0,0.0,0.0,0.0,-0.08,0.04,-9.573,0.0,0.0,0.0,0.0,0.0,0.0,0.0,0.0,0.0
1581113311756571267,231,1581113311756419897,,0.864685770573,-0.00308487653309,-0.498345047348,0.866964852104,0.0,0.0,0.0,0.0,0.0,0.0,0.0,0.0,0.0,-0.001061,-0.000384,-0.001283,0.0,0.0,0.0,0.0,0.0,0.0,0.0,0.0,0.0,-0.079,0.029,-9.613,0.0,0.0,0.0,0.0,0.0,0.0,0.0,0.0,0.0
1581113311781598463,232,1581113311781449079,,0.864668222653,-0.00308039381403,-0.498375336727,0.866947422625,0.0,0.0,0.0,0.0,0.0,0.0,0.0,0.0,0.0,0.001331,0.000517,-3.5e-05,0.0,0.0,0.0,0.0,0.0,0.0,0.0,0.0,0.0,-0.078,0.033,-9.618,0.0,0.0,0.0,0.0,0.0,0.0,0.0,0.0,0.0
1581113311806270222,233,1581113311806135892,,0.86468136006,-0.0030685460293,-0.498360238733,0.866956129738,0.0,0.0,0.0,0.0,0.0,0.0,0.0,0.0,0.0,-0.00115,0.000323,-2.7e-05,0.0,0.0,0.0,0.0,0.0,0.0,0.0,0.0,0.0,-0.074,0.03,-9.597,0.0,0.0,0.0,0.0,0.0,0.0,0.0,0.0,0.0
1581113311831127008,234,1581113311830993890,,0.864690127023,-0.00306861300398,-0.498345107418,0.866964827633,0.0,0.0,0.0,0.0,0.0,0.0,0.0,0.0,0.0,-0.00053,0.000889,-0.000168,0.0,0.0,0.0,0.0,0.0,0.0,0.0,0.0,0.0,-0.093,0.036,-9.564,0.0,0.0,0.0,0.0,0.0,0.0,0.0,0.0,0.0
1581113311855924241,235,1581113311855796098,,0.864663811746,-0.00307166193089,-0.498382955938,0.866943006394,0.0,0.0,0.0,0.0,0.0,0.0,0.0,0.0,0.0,-0.000729,0.000736,0.001171,0.0,0.0,0.0,0.0,0.0,0.0,0.0,0.0,0.0,-0.083,0.012,-9.615,0.0,0.0,0.0,0.0,0.0,0.0,0.0,0.0,0.0
1581113311882019851,236,1581113311881889104,,0.86465505759,-0.00307594408961,-0.498398060049,0.866934341398,0.0,0.0,0.0,0.0,0.0,0.0,0.0,0.0,0.0,-0.000778,-0.000442,7.7e-05,0.0,0.0,0.0,0.0,0.0,0.0,0.0,0.0,0.0,-0.082,0.041,-9.612,0.0,0.0,0.0,0.0,0.0,0.0,0.0,0.0,0.0
1581113311906447859,237,1581113311906286001,,0.864650660017,-0.0030715611531,-0.498405652282,0.866929958462,0.0,0.0,0.0,0.0,0.0,0.0,0.0,0.0,0.0,-4.3e-05,0.000604,0.001471,0.0,0.0,0.0,0.0,0.0,0.0,0.0,0.0,0.0,-0.077,0.009,-9.617,0.0,0.0,0.0,0.0,0.0,0.0,0.0,0.0,0.0
1581113311931292407,238,1581113311931124925,,0.864646289573,-0.0030834760257,-0.498405619114,0.866929949509,0.0,0.0,0.0,0.0,0.0,0.0,0.0,0.0,0.0,-0.000563,-0.001422,-0.001191,0.0,0.0,0.0,0.0,0.0,0.0,0.0,0.0,0.0,-0.084,0.033,-9.593,0.0,0.0,0.0,0.0,0.0,0.0,0.0,0.0,0.0
1581113311956174496,239,1581113311956012964,,0.864637534824,-0.00308775843692,-0.498420722893,0.86692128409,0.0,0.0,0.0,0.0,0.0,0.0,0.0,0.0,0.0,-0.000412,-0.000341,-0.000342,0.0,0.0,0.0,0.0,0.0,0.0,0.0,0.0,0.0,-0.101,0.032,-9.602,0.0,0.0,0.0,0.0,0.0,0.0,0.0,0.0,0.0
1581113311981074136,240,1581113311980936050,,0.86462876628,-0.00309529028621,-0.498428281739,0.866916891975,0.0,0.0,0.0,0.0,0.0,0.0,0.0,0.0,0.0,0.000183,-0.000486,-7.8e-05,0.0,0.0,0.0,0.0,0.0,0.0,0.0,0.0,0.0,-0.081,0.02,-9.603,0.0,0.0,0.0,0.0,0.0,0.0,0.0,0.0,0.0
1581113312006570424,241,1581113312006434917,,0.86463316405,-0.00309207454471,-0.498428261225,0.866916967982,0.0,0.0,0.0,0.0,0.0,0.0,0.0,0.0,0.0,-0.000326,-0.000573,0.000735,0.0,0.0,0.0,0.0,0.0,0.0,0.0,0.0,0.0,-0.109,0.038,-9.575,0.0,0.0,0.0,0.0,0.0,0.0,0.0,0.0,0.0
1581113312031494154,242,1581113312031330108,,0.864641945862,-0.0031116886206,-0.498397959607,0.866934314286,0.0,0.0,0.0,0.0,0.0,0.0,0.0,0.0,0.0,-6.3e-05,0.000392,0.000146,0.0,0.0,0.0,0.0,0.0,0.0,0.0,0.0,0.0,-0.085,0.049,-9.584,0.0,0.0,0.0,0.0,0.0,0.0,0.0,0.0,0.0
1581113312056427824,243,1581113312056245088,,0.864655084587,-0.00309984071817,-0.498382862361,0.866943021933,0.0,0.0,0.0,0.0,0.0,0.0,0.0,0.0,0.0,0.000224,-0.000109,0.001679,0.0,0.0,0.0,0.0,0.0,0.0,0.0,0.0,0.0,-0.063,0.046,-9.586,0.0,0.0,0.0,0.0,0.0,0.0,0.0,0.0,0.0
1581113312081234139,244,1581113312081067085,,0.864655071121,-0.00309549150711,-0.498382889394,0.86694298843,0.0,0.0,0.0,0.0,0.0,0.0,0.0,0.0,0.0,-2.4e-05,-0.000723,-0.000189,0.0,0.0,0.0,0.0,0.0,0.0,0.0,0.0,0.0,-0.098,0.034,-9.602,0.0,0.0,0.0,0.0,0.0,0.0,0.0,0.0,0.0
1581113312106075377,245,1581113312105937957,,0.864663838875,-0.00309555857886,-0.498367758308,0.86695168672,0.0,0.0,0.0,0.0,0.0,0.0,0.0,0.0,0.0,-0.001003,-0.000454,0.002721,0.0,0.0,0.0,0.0,0.0,0.0,0.0,0.0,0.0,-0.095,0.047,-9.597,0.0,0.0,0.0,0.0,0.0,0.0,0.0,0.0,0.0
1581113312131232677,246,1581113312131098031,,0.864659481897,-0.00309662435264,-0.498382841871,0.866943097836,0.0,0.0,0.0,0.0,0.0,0.0,0.0,0.0,0.0,-0.000896,-0.000539,-0.000905,0.0,0.0,0.0,0.0,0.0,0.0,0.0,0.0,0.0,-0.091,0.03,-9.607,0.0,0.0,0.0,0.0,0.0,0.0,0.0,0.0,0.0
1581113312156407704,247,1581113312156272888,,0.864650700611,-0.00309220827702,-0.49839799981,0.866934365882,0.0,0.0,0.0,0.0,0.0,0.0,0.0,0.0,0.0,3.5e-05,-0.0002,-0.000795,0.0,0.0,0.0,0.0,0.0,0.0,0.0,0.0,0.0,-0.081,0.036,-9.582,0.0,0.0,0.0,0.0,0.0,0.0,0.0,0.0,0.0
1581113312181534149,248,1581113312181387901,,0.864641945862,-0.0030964908863,-0.498413103591,0.866925700464,0.0,0.0,0.0,0.0,0.0,0.0,0.0,0.0,0.0,0.00119,0.000707,0.000221,0.0,0.0,0.0,0.0,0.0,0.0,0.0,0.0,0.0,-0.094,0.032,-9.579,0.0,0.0,0.0,0.0,0.0,0.0,0.0,0.0,0.0
1581113312206313787,249,1581113312206172943,,0.864637575023,-0.00310080705987,-0.498420641885,0.866921384291,0.0,0.0,0.0,0.0,0.0,0.0,0.0,0.0,0.0,-0.000101,0.000269,0.001167,0.0,0.0,0.0,0.0,0.0,0.0,0.0,0.0,0.0,-0.077,0.046,-9.613,0.0,0.0,0.0,0.0,0.0,0.0,0.0,0.0,0.0
1581113312231128702,250,1581113312230986118,,0.864615626436,-0.00309194080863,-0.498458522032,0.866899569025,0.0,0.0,0.0,0.0,0.0,0.0,0.0,0.0,0.0,-0.000237,0.000399,0.000843,0.0,0.0,0.0,0.0,0.0,0.0,0.0,0.0,0.0,-0.069,0.036,-9.604,0.0,0.0,0.0,0.0,0.0,0.0,0.0,0.0,0.0
1581113312256095960,251,1581113312255960941,,0.864606857233,-0.00309947253292,-0.498466080621,0.866895176619,0.0,0.0,0.0,0.0,0.0,0.0,0.0,0.0,0.0,-0.001296,-0.001568,-0.000106,0.0,0.0,0.0,0.0,0.0,0.0,0.0,0.0,0.0,-0.079,0.009,-9.597,0.0,0.0,0.0,0.0,0.0,0.0,0.0,0.0,0.0
1581113312281250068,252,1581113312281120061,,0.864620010938,-0.003091974243,-0.498450956887,0.866903918864,0.0,0.0,0.0,0.0,0.0,0.0,0.0,0.0,0.0,-0.000701,0.000412,-0.001285,0.0,0.0,0.0,0.0,0.0,0.0,0.0,0.0,0.0,-0.09,0.025,-9.576,0.0,0.0,0.0,0.0,0.0,0.0,0.0,0.0,0.0
1581113312306695580,253,1581113312306487083,,0.86463316405,-0.00309207454471,-0.498428261225,0.866916967982,0.0,0.0,0.0,0.0,0.0,0.0,0.0,0.0,0.0,-0.00212,0.000248,-0.000755,0.0,0.0,0.0,0.0,0.0,0.0,0.0,0.0,0.0,-0.099,0.054,-9.598,0.0,0.0,0.0,0.0,0.0,0.0,0.0,0.0,0.0
1581113312331245759,254,1581113312331080913,,0.864611214871,-0.00309080626273,-0.498458569535,0.866899459446,0.0,0.0,0.0,0.0,0.0,0.0,0.0,0.0,0.0,-0.001444,-0.001344,7.1e-05,0.0,0.0,0.0,0.0,0.0,0.0,0.0,0.0,0.0,-0.11,0.016,-9.569,0.0,0.0,0.0,0.0,0.0,0.0,0.0,0.0,0.0
1581113312356226593,255,1581113312356093883,,0.864628739152,-0.00308659107114,-0.498428335686,0.866916824768,0.0,0.0,0.0,0.0,0.0,0.0,0.0,0.0,0.0,-0.001598,0.000277,0.001381,0.0,0.0,0.0,0.0,0.0,0.0,0.0,0.0,0.0,-0.109,0.024,-9.625,0.0,0.0,0.0,0.0,0.0,0.0,0.0,0.0,0.0
1581113312381079080,256,1581113312380943059,,0.864637507695,-0.00307905935378,-0.498420776709,0.866921216959,0.0,0.0,0.0,0.0,0.0,0.0,0.0,0.0,0.0,0.000899,0.001025,-0.000246,0.0,0.0,0.0,0.0,0.0,0.0,0.0,0.0,0.0,-0.105,0.024,-9.611,0.0,0.0,0.0,0.0,0.0,0.0,0.0,0.0,0.0
1581113312406425055,257,1581113312406291007,,0.864637507695,-0.0030714603732,-0.498428348285,0.866916909935,0.0,0.0,0.0,0.0,0.0,0.0,0.0,0.0,0.0,-6.7e-05,-0.000263,-0.00047,0.0,0.0,0.0,0.0,0.0,0.0,0.0,0.0,0.0,-0.086,0.028,-9.611,0.0,0.0,0.0,0.0,0.0,0.0,0.0,0.0,0.0
1581113312431490233,258,1581113312431327104,,0.864641891868,-0.00307149396673,-0.498420782989,0.86692125951,0.0,0.0,0.0,0.0,0.0,0.0,0.0,0.0,0.0,-0.000189,-0.000212,0.000309,0.0,0.0,0.0,0.0,0.0,0.0,0.0,0.0,0.0,-0.105,0.017,-9.61,0.0,0.0,0.0,0.0,0.0,0.0,0.0,0.0,0.0
1581113312456342204,259,1581113312456212997,,0.864637521293,-0.00307580998096,-0.498428321462,0.866916943496,0.0,0.0,0.0,0.0,0.0,0.0,0.0,0.0,0.0,-0.000198,-0.001156,0.00072,0.0,0.0,0.0,0.0,0.0,0.0,0.0,0.0,0.0,-0.085,0.03,-9.617,0.0,0.0,0.0,0.0,0.0,0.0,0.0,0.0,0.0
1581113312482113667,260,1581113312481980085,,0.864650673614,-0.0030759105628,-0.498405625459,0.866929992022,0.0,0.0,0.0,0.0,0.0,0.0,0.0,0.0,0.0,0.000999,-0.00057,-8.2e-05,0.0,0.0,0.0,0.0,0.0,0.0,0.0,0.0,0.0,-0.091,0.041,-9.597,0.0,0.0,0.0,0.0,0.0,0.0,0.0,0.0,0.0
1581113312505968125,261,1581113312505841016,,0.864672606365,-0.00307282819913,-0.498375343099,0.866947465034,0.0,0.0,0.0,0.0,0.0,0.0,0.0,0.0,0.0,0.000522,-0.000545,0.000931,0.0,0.0,0.0,0.0,0.0,0.0,0.0,0.0,0.0,-0.089,0.041,-9.614,0.0,0.0,0.0,0.0,0.0,0.0,0.0,0.0,0.0
1581113312532120621,262,1581113312531991958,,0.864672606365,-0.00308042727388,-0.498367771165,0.866951771737,0.0,0.0,0.0,0.0,0.0,0.0,0.0,0.0,0.0,0.000361,0.00028,-0.000472,0.0,0.0,0.0,0.0,0.0,0.0,0.0,0.0,0.0,-0.095,0.041,-9.597,0.0,0.0,0.0,0.0,0.0,0.0,0.0,0.0,0.0
1581113312556027620,263,1581113312555916070,,0.864672606365,-0.00308802642406,-0.498360199155,0.866956078308,0.0,0.0,0.0,0.0,0.0,0.0,0.0,0.0,0.0,-0.000802,-2e-05,0.000119,0.0,0.0,0.0,0.0,0.0,0.0,0.0,0.0,0.0,-0.103,0.026,-9.617,0.0,0.0,0.0,0.0,0.0,0.0,0.0,0.0,0.0
1581113312581719164,264,1581113312581609964,,0.864672606365,-0.00308802642406,-0.498360199155,0.866956078308,0.0,0.0,0.0,0.0,0.0,0.0,0.0,0.0,0.0,0.000156,-0.00095,0.000135,0.0,0.0,0.0,0.0,0.0,0.0,0.0,0.0,0.0,-0.112,0.025,-9.588,0.0,0.0,0.0,0.0,0.0,0.0,0.0,0.0,0.0
1581113312605759750,265,1581113312605653047,,0.864663838875,-0.00309555857886,-0.498367758308,0.86695168672,0.0,0.0,0.0,0.0,0.0,0.0,0.0,0.0,0.0,0.000144,-0.001121,0.000414,0.0,0.0,0.0,0.0,0.0,0.0,0.0,0.0,0.0,-0.096,0.048,-9.609,0.0,0.0,0.0,0.0,0.0,0.0,0.0,0.0,0.0
1581113312631748482,266,1581113312631620883,,0.864681373592,-0.00309569271953,-0.498337495682,0.866969082509,0.0,0.0,0.0,0.0,0.0,0.0,0.0,0.0,0.0,-0.000403,0.000575,0.000838,0.0,0.0,0.0,0.0,0.0,0.0,0.0,0.0,0.0,-0.07,0.023,-9.564,0.0,0.0,0.0,0.0,0.0,0.0,0.0,0.0,0.0
1581113312655734976,267,1581113312655606985,,0.864685757107,-0.00310332566829,-0.498322357658,0.866977737399,0.0,0.0,0.0,0.0,0.0,0.0,0.0,0.0,0.0,-0.00124,-0.000231,-0.00064,0.0,0.0,0.0,0.0,0.0,0.0,0.0,0.0,0.0,-0.095,0.027,-9.611,0.0,0.0,0.0,0.0,0.0,0.0,0.0,0.0,0.0
1581113312681754669,268,1581113312681642055,,0.864685783973,-0.00311962239113,-0.498314730938,0.866982110463,0.0,0.0,0.0,0.0,0.0,0.0,0.0,0.0,0.0,0.000162,-0.000149,0.000774,0.0,0.0,0.0,0.0,0.0,0.0,0.0,0.0,0.0,-0.108,0.017,-9.57,0.0,0.0,0.0,0.0,0.0,0.0,0.0,0.0,0.0
1581113312705997121,269,1581113312705862998,,0.864685810577,-0.00312072039815,-0.498322249027,0.86697787116,0.0,0.0,0.0,0.0,0.0,0.0,0.0,0.0,0.0,0.000456,0.000433,-1.8e-05,0.0,0.0,0.0,0.0,0.0,0.0,0.0,0.0,0.0,-0.083,0.048,-9.629,0.0,0.0,0.0,0.0,0.0,0.0,0.0,0.0,0.0
1581113312731918211,270,1581113312731796979,,0.864690194026,-0.00312075370611,-0.498314683199,0.866982219809,0.0,0.0,0.0,0.0,0.0,0.0,0.0,0.0,0.0,0.000823,-0.000261,-0.001547,0.0,0.0,0.0,0.0,0.0,0.0,0.0,0.0,0.0,-0.086,0.03,-9.592,0.0,0.0,0.0,0.0,0.0,0.0,0.0,0.0,0.0
1581113312755739861,271,1581113312755578041,,0.864690194026,-0.00312835296909,-0.498307110549,0.86698652587,0.0,0.0,0.0,0.0,0.0,0.0,0.0,0.0,0.0,-0.001193,-0.000131,0.00058,0.0,0.0,0.0,0.0,0.0,0.0,0.0,0.0,0.0,-0.092,0.033,-9.584,0.0,0.0,0.0,0.0,0.0,0.0,0.0,0.0,0.0
1581113312781429408,272,1581113312781326055,,0.864690194026,-0.00312835296909,-0.498307110549,0.86698652587,0.0,0.0,0.0,0.0,0.0,0.0,0.0,0.0,0.0,-0.000584,-0.00035,0.001471,0.0,0.0,0.0,0.0,0.0,0.0,0.0,0.0,0.0,-0.089,0.015,-9.627,0.0,0.0,0.0,0.0,0.0,0.0,0.0,0.0,0.0
1581113312807053754,273,1581113312806890964,,0.864681413793,-0.00312393759547,-0.498322269523,0.866977795259,0.0,0.0,0.0,0.0,0.0,0.0,0.0,0.0,0.0,0.000294,-7.1e-05,-0.0006,0.0,0.0,0.0,0.0,0.0,0.0,0.0,0.0,0.0,-0.092,0.032,-9.623,0.0,0.0,0.0,0.0,0.0,0.0,0.0,0.0,0.0
1581113312832021006,274,1581113312831908941,,0.864685797308,-0.00313157037418,-0.498307131073,0.866986449865,0.0,0.0,0.0,0.0,0.0,0.0,0.0,0.0,0.0,-0.000968,-0.000607,0.001174,0.0,0.0,0.0,0.0,0.0,0.0,0.0,0.0,0.0,-0.076,0.053,-9.633,0.0,0.0,0.0,0.0,0.0,0.0,0.0,0.0,0.0
1581113312856266785,275,1581113312856146097,,0.864681400459,-0.00311958891318,-0.498322296765,0.866977761814,0.0,0.0,0.0,0.0,0.0,0.0,0.0,0.0,0.0,-0.001519,-0.001161,-0.000524,0.0,0.0,0.0,0.0,0.0,0.0,0.0,0.0,0.0,-0.091,0.053,-9.6,0.0,0.0,0.0,0.0,0.0,0.0,0.0,0.0,0.0
1581113312881757298,276,1581113312881602048,,0.864677016878,-0.00312715479243,-0.498322290074,0.86697771915,0.0,0.0,0.0,0.0,0.0,0.0,0.0,0.0,0.0,-0.000333,0.000328,-0.001562,0.0,0.0,0.0,0.0,0.0,0.0,0.0,0.0,0.0,-0.086,0.036,-9.597,0.0,0.0,0.0,0.0,0.0,0.0,0.0,0.0,0.0
1581113312905552522,277,1581113312905405998,,0.864681400459,-0.0031347877789,-0.498307151654,0.866986373652,0.0,0.0,0.0,0.0,0.0,0.0,0.0,0.0,0.0,-0.000281,-0.000446,0.001511,0.0,0.0,0.0,0.0,0.0,0.0,0.0,0.0,0.0,-0.072,0.026,-9.583,0.0,0.0,0.0,0.0,0.0,0.0,0.0,0.0,0.0
1581113312932812889,278,1581113312932647943,,0.864690154022,-0.00312290685503,-0.498299619751,0.866990731351,0.0,0.0,0.0,0.0,0.0,0.0,0.0,0.0,0.0,-0.000377,0.001334,0.002205,0.0,0.0,0.0,0.0,0.0,0.0,0.0,0.0,0.0,-0.084,0.023,-9.564,0.0,0.0,0.0,0.0,0.0,0.0,0.0,0.0,0.0
1581113312957037329,279,1581113312956932067,,0.864694550805,-0.00312728885461,-0.498292026539,0.866995113351,0.0,0.0,0.0,0.0,0.0,0.0,0.0,0.0,0.0,-0.000223,0.001304,-0.000535,0.0,0.0,0.0,0.0,0.0,0.0,0.0,0.0,0.0,-0.078,0.017,-9.602,0.0,0.0,0.0,0.0,0.0,0.0,0.0,0.0,0.0
1581113312981776245,280,1581113312981669902,,0.864698934123,-0.00311972282357,-0.498292033229,0.866995156015,0.0,0.0,0.0,0.0,0.0,0.0,0.0,0.0,0.0,-0.000243,0.000828,0.000934,0.0,0.0,0.0,0.0,0.0,0.0,0.0,0.0,0.0,-0.102,0.042,-9.592,0.0,0.0,0.0,0.0,0.0,0.0,0.0,0.0,0.0
1581113313007133938,281,1581113313006988048,,0.864698934123,-0.00312732236956,-0.49828446056,0.866999461736,0.0,0.0,0.0,0.0,0.0,0.0,0.0,0.0,0.0,0.001234,0.000207,0.000408,0.0,0.0,0.0,0.0,0.0,0.0,0.0,0.0,0.0,-0.058,0.038,-9.571,0.0,0.0,0.0,0.0,0.0,0.0,0.0,0.0,0.0
1581113313031557727,282,1581113313031450986,,0.864703317374,-0.00311215679229,-0.49829203988,0.866995198613,0.0,0.0,0.0,0.0,0.0,0.0,0.0,0.0,0.0,4e-06,0.001205,-0.000575,0.0,0.0,0.0,0.0,0.0,0.0,0.0,0.0,0.0,-0.088,0.04,-9.59,0.0,0.0,0.0,0.0,0.0,0.0,0.0,0.0,0.0
1581113313057137718,283,1581113313057030916,,0.86470770056,-0.00311219023135,-0.498284473901,0.866999546998,0.0,0.0,0.0,0.0,0.0,0.0,0.0,0.0,0.0,-0.00081,-0.000461,0.000964,0.0,0.0,0.0,0.0,0.0,0.0,0.0,0.0,0.0,-0.072,0.033,-9.579,0.0,0.0,0.0,0.0,0.0,0.0,0.0,0.0,0.0
1581113313081777118,284,1581113313081666946,,0.864720849721,-0.00309709145513,-0.498276921072,0.867003980316,0.0,0.0,0.0,0.0,0.0,0.0,0.0,0.0,0.0,0.001165,0.000426,0.000198,0.0,0.0,0.0,0.0,0.0,0.0,0.0,0.0,0.0,-0.106,0.059,-9.596,0.0,0.0,0.0,0.0,0.0,0.0,0.0,0.0,0.0
1581113313106993869,285,1581113313106878995,,0.864725219242,-0.0030927765973,-0.498269382024,0.867008295174,0.0,0.0,0.0,0.0,0.0,0.0,0.0,0.0,0.0,0.0012,-0.001545,0.001065,0.0,0.0,0.0,0.0,0.0,0.0,0.0,0.0,0.0,-0.082,0.035,-9.614,0.0,0.0,0.0,0.0,0.0,0.0,0.0,0.0,0.0
1581113313131930864,286,1581113313131784915,,0.864716466733,-0.0030970580922,-0.49828448709,0.866999631997,0.0,0.0,0.0,0.0,0.0,0.0,0.0,0.0,0.0,0.000788,0.000599,-0.00069,0.0,0.0,0.0,0.0,0.0,0.0,0.0,0.0,0.0,-0.075,0.023,-9.584,0.0,0.0,0.0,0.0,0.0,0.0,0.0,0.0,0.0
1581113313157164363,287,1581113313157043933,,0.864720849721,-0.00309709145513,-0.498276921072,0.867003980316,0.0,0.0,0.0,0.0,0.0,0.0,0.0,0.0,0.0,-0.001457,-0.000208,0.000421,0.0,0.0,0.0,0.0,0.0,0.0,0.0,0.0,0.0,-0.077,0.038,-9.585,0.0,0.0,0.0,0.0,0.0,0.0,0.0,0.0,0.0
1581113313188145742,288,1581113313187690973,,0.86473399829,-0.00308959199651,-0.498261795458,0.867012719157,0.0,0.0,0.0,0.0,0.0,0.0,0.0,0.0,0.0,-0.000546,-0.000928,-0.001208,0.0,0.0,0.0,0.0,0.0,0.0,0.0,0.0,0.0,-0.081,0.045,-9.614,0.0,0.0,0.0,0.0,0.0,0.0,0.0,0.0,0.0
1581113313207712096,289,1581113313207540988,,0.864742763673,-0.00308965864484,-0.498246663156,0.867021415334,0.0,0.0,0.0,0.0,0.0,0.0,0.0,0.0,0.0,0.00013,9.9e-05,0.001448,0.0,0.0,0.0,0.0,0.0,0.0,0.0,0.0,0.0,-0.102,0.021,-9.589,0.0,0.0,0.0,0.0,0.0,0.0,0.0,0.0,0.0
1581113313231764611,290,1581113313231650114,,0.864742790278,-0.00309835468912,-0.498246609155,0.86702148185,0.0,0.0,0.0,0.0,0.0,0.0,0.0,0.0,0.0,-3.3e-05,-0.000135,-0.00072,0.0,0.0,0.0,0.0,0.0,0.0,0.0,0.0,0.0,-0.08,0.063,-9.598,0.0,0.0,0.0,0.0,0.0,0.0,0.0,0.0,0.0
1581113313256982368,291,1581113313256875991,,0.864734011625,-0.00309394015083,-0.498261768477,0.867012752448,0.0,0.0,0.0,0.0,0.0,0.0,0.0,0.0,0.0,-0.00074,-0.000883,-0.000564,0.0,0.0,0.0,0.0,0.0,0.0,0.0,0.0,0.0,-0.081,0.031,-9.608,0.0,0.0,0.0,0.0,0.0,0.0,0.0,0.0,0.0
1581113313282008310,292,1581113313281897068,,0.864729642104,-0.00309825511245,-0.498269307554,0.867008437487,0.0,0.0,0.0,0.0,0.0,0.0,0.0,0.0,0.0,-0.000156,-0.001568,0.000563,0.0,0.0,0.0,0.0,0.0,0.0,0.0,0.0,0.0,-0.09,0.035,-9.606,0.0,0.0,0.0,0.0,0.0,0.0,0.0,0.0,0.0
1581113313306535327,293,1581113313306428909,,0.864738407619,-0.00309832149713,-0.498254175326,0.867017133795,0.0,0.0,0.0,0.0,0.0,0.0,0.0,0.0,0.0,0.001112,7.1e-05,0.000194,0.0,0.0,0.0,0.0,0.0,0.0,0.0,0.0,0.0,-0.082,0.019,-9.629,0.0,0.0,0.0,0.0,0.0,0.0,0.0,0.0,0.0
1581113313331996921,294,1581113313331862926,,0.864738420823,-0.00311026897039,-0.498246575364,0.867021472722,0.0,0.0,0.0,0.0,0.0,0.0,0.0,0.0,0.0,0.001184,0.000181,-0.00113,0.0,0.0,0.0,0.0,0.0,0.0,0.0,0.0,0.0,-0.116,0.006,-9.605,0.0,0.0,0.0,0.0,0.0,0.0,0.0,0.0,0.0
1581113313357041045,295,1581113313356931924,,0.864755951064,-0.00311040162364,-0.498216310302,0.86703886428,0.0,0.0,0.0,0.0,0.0,0.0,0.0,0.0,0.0,-0.000966,-0.000596,-0.000455,0.0,0.0,0.0,0.0,0.0,0.0,0.0,0.0,0.0,-0.067,0.048,-9.597,0.0,0.0,0.0,0.0,0.0,0.0,0.0,0.0,0.0
1581113313381674856,296,1581113313381570100,,0.864764715789,-0.00311046794885,-0.498201177543,0.867047559663,0.0,0.0,0.0,0.0,0.0,0.0,0.0,0.0,0.0,-0.000424,-0.000571,0.000579,0.0,0.0,0.0,0.0,0.0,0.0,0.0,0.0,0.0,-0.086,0.037,-9.628,0.0,0.0,0.0,0.0,0.0,0.0,0.0,0.0,0.0
1581113313406708209,297,1581113313406574964,,0.864769098053,-0.00310290146172,-0.498201184274,0.86704760195,0.0,0.0,0.0,0.0,0.0,0.0,0.0,0.0,0.0,0.000144,-6.5e-05,0.000293,0.0,0.0,0.0,0.0,0.0,0.0,0.0,0.0,0.0,-0.079,0.007,-9.61,0.0,0.0,0.0,0.0,0.0,0.0,0.0,0.0,0.0
1581113313431574535,298,1581113313431466102,,0.864769111191,-0.00310724908711,-0.498201157178,0.867047635041,0.0,0.0,0.0,0.0,0.0,0.0,0.0,0.0,0.0,0.000123,0.000607,-0.0003,0.0,0.0,0.0,0.0,0.0,0.0,0.0,0.0,0.0,-0.093,0.005,-9.597,0.0,0.0,0.0,0.0,0.0,0.0,0.0,0.0,0.0
1581113313466413427,299,1581113313465745925,,0.864777875521,-0.00310731520343,-0.498186024266,0.86705633016,0.0,0.0,0.0,0.0,0.0,0.0,0.0,0.0,0.0,-0.000484,-0.00023,-0.000197,0.0,0.0,0.0,0.0,0.0,0.0,0.0,0.0,0.0,-0.085,0.023,-9.634,0.0,0.0,0.0,0.0,0.0,0.0,0.0,0.0,0.0
1581113313482979483,300,1581113313482753038,,0.86478665266,-0.00311172867983,-0.498170864066,0.867065058039,0.0,0.0,0.0,0.0,0.0,0.0,0.0,0.0,0.0,-0.001089,0.000774,-0.001093,0.0,0.0,0.0,0.0,0.0,0.0,0.0,0.0,0.0,-0.061,0.047,-9.625,0.0,0.0,0.0,0.0,0.0,0.0,0.0,0.0,0.0
1581113313506738482,301,1581113313506608963,,0.864795429471,-0.00311614189092,-0.498155703676,0.867073785586,0.0,0.0,0.0,0.0,0.0,0.0,0.0,0.0,0.0,0.000268,-0.001144,0.000651,0.0,0.0,0.0,0.0,0.0,0.0,0.0,0.0,0.0,-0.113,0.029,-9.602,0.0,0.0,0.0,0.0,0.0,0.0,0.0,0.0,0.0
1581113313532482384,302,1581113313532356977,,0.864786665667,-0.00313127531982,-0.498155689783,0.867073701174,0.0,0.0,0.0,0.0,0.0,0.0,0.0,0.0,0.0,-0.000664,-0.001616,-0.001005,0.0,0.0,0.0,0.0,0.0,0.0,0.0,0.0,0.0,-0.073,0.036,-9.598,0.0,0.0,0.0,0.0,0.0,0.0,0.0,0.0,0.0
1581113313556657374,303,1581113313556546926,,0.864791047602,-0.00313130832048,-0.498148123118,0.867078048369,0.0,0.0,0.0,0.0,0.0,0.0,0.0,0.0,0.0,-0.000863,-0.000782,0.000474,0.0,0.0,0.0,0.0,0.0,0.0,0.0,0.0,0.0,-0.076,0.049,-9.609,0.0,0.0,0.0,0.0,0.0,0.0,0.0,0.0,0.0
1581113313581863141,304,1581113313581674098,,0.864804180004,-0.00311186064361,-0.498140597482,0.867082446954,0.0,0.0,0.0,0.0,0.0,0.0,0.0,0.0,0.0,-3e-06,0.000721,-0.000712,0.0,0.0,0.0,0.0,0.0,0.0,0.0,0.0,0.0,-0.095,0.04,-9.584,0.0,0.0,0.0,0.0,0.0,0.0,0.0,0.0,0.0
1581113313607066571,305,1581113313606914997,,0.864782283667,-0.00313124231891,-0.498163256409,0.867069353912,0.0,0.0,0.0,0.0,0.0,0.0,0.0,0.0,0.0,0.000876,0.000745,-0.00022,0.0,0.0,0.0,0.0,0.0,0.0,0.0,0.0,0.0,-0.08,0.035,-9.605,0.0,0.0,0.0,0.0,0.0,0.0,0.0,0.0,0.0
1581113313631921159,306,1581113313631728887,,0.864795403391,-0.00311504724271,-0.498148184527,0.867078024551,0.0,0.0,0.0,0.0,0.0,0.0,0.0,0.0,0.0,-0.00011,-0.001177,0.000273,0.0,0.0,0.0,0.0,0.0,0.0,0.0,0.0,0.0,-0.087,0.016,-9.606,0.0,0.0,0.0,0.0,0.0,0.0,0.0,0.0,0.0
1581113313656880386,307,1581113313656636953,,0.864799798267,-0.00311942743411,-0.498140590622,0.867082404743,0.0,0.0,0.0,0.0,0.0,0.0,0.0,0.0,0.0,0.00041,-0.000222,-0.000331,0.0,0.0,0.0,0.0,0.0,0.0,0.0,0.0,0.0,-0.086,0.037,-9.584,0.0,0.0,0.0,0.0,0.0,0.0,0.0,0.0,0.0
1581113313681729999,308,1581113313681612968,,0.864804153792,-0.0031183664269,-0.498125504707,0.867090990263,0.0,0.0,0.0,0.0,0.0,0.0,0.0,0.0,0.0,-0.00081,0.000438,0.000216,0.0,0.0,0.0,0.0,0.0,0.0,0.0,0.0,0.0,-0.101,0.032,-9.61,0.0,0.0,0.0,0.0,0.0,0.0,0.0,0.0,0.0
1581113313707145088,309,1581113313706990003,,0.864808548602,-0.00312274652364,-0.498117910659,0.867095370359,0.0,0.0,0.0,0.0,0.0,0.0,0.0,0.0,0.0,-0.000959,0.000605,-0.001025,0.0,0.0,0.0,0.0,0.0,0.0,0.0,0.0,0.0,-0.076,0.021,-9.611,0.0,0.0,0.0,0.0,0.0,0.0,0.0,0.0,0.0
1581113313731955880,310,1581113313731828927,,0.864799772055,-0.00311833322886,-0.498133071484,0.867086643264,0.0,0.0,0.0,0.0,0.0,0.0,0.0,0.0,0.0,-0.000519,0.000395,-1e-06,0.0,0.0,0.0,0.0,0.0,0.0,0.0,0.0,0.0,-0.079,0.045,-9.614,0.0,0.0,0.0,0.0,0.0,0.0,0.0,0.0,0.0
1581113313762663676,311,1581113313762427091,,0.864799772055,-0.00311833322886,-0.498133071484,0.867086643264,0.0,0.0,0.0,0.0,0.0,0.0,0.0,0.0,0.0,-0.000647,0.000742,-0.000466,0.0,0.0,0.0,0.0,0.0,0.0,0.0,0.0,0.0,-0.083,0.035,-9.589,0.0,0.0,0.0,0.0,0.0,0.0,0.0,0.0,0.0
1581113313782617735,312,1581113313782484054,,0.864804140587,-0.00311401946171,-0.498125531901,0.867090957032,0.0,0.0,0.0,0.0,0.0,0.0,0.0,0.0,0.0,-0.001143,0.000275,-0.000706,0.0,0.0,0.0,0.0,0.0,0.0,0.0,0.0,0.0,-0.084,0.021,-9.595,0.0,0.0,0.0,0.0,0.0,0.0,0.0,0.0,0.0
1581113313807102767,313,1581113313806996107,,0.864804140587,-0.00310641936926,-0.498133105378,0.867086652425,0.0,0.0,0.0,0.0,0.0,0.0,0.0,0.0,0.0,-0.000406,-0.000254,-0.000114,0.0,0.0,0.0,0.0,0.0,0.0,0.0,0.0,0.0,-0.075,0.029,-9.603,0.0,0.0,0.0,0.0,0.0,0.0,0.0,0.0,0.0
1581113313831891803,314,1581113313831779956,,0.864782231244,-0.00310625323497,-0.498170938696,0.867064916442,0.0,0.0,0.0,0.0,0.0,0.0,0.0,0.0,0.0,3e-05,0.000727,-0.000542,0.0,0.0,0.0,0.0,0.0,0.0,0.0,0.0,0.0,-0.097,0.036,-9.588,0.0,0.0,0.0,0.0,0.0,0.0,0.0,0.0,0.0
1581113313856671302,315,1581113313856568098,,0.864777849178,-0.00310622000741,-0.498178505246,0.867060569048,0.0,0.0,0.0,0.0,0.0,0.0,0.0,0.0,0.0,0.000212,0.000816,0.000708,0.0,0.0,0.0,0.0,0.0,0.0,0.0,0.0,0.0,-0.074,0.063,-9.565,0.0,0.0,0.0,0.0,0.0,0.0,0.0,0.0,0.0
1581113313881688921,316,1581113313881582975,,0.864790981909,-0.00310197245978,-0.498155832571,0.867073577773,0.0,0.0,0.0,0.0,0.0,0.0,0.0,0.0,0.0,-0.000497,-0.000704,0.00019,0.0,0.0,0.0,0.0,0.0,0.0,0.0,0.0,0.0,-0.093,0.026,-9.624,0.0,0.0,0.0,0.0,0.0,0.0,0.0,0.0,0.0
1581113313906616273,317,1581113313906466007,,0.864777835908,-0.0031170725198,-0.498163385888,0.867069145586,0.0,0.0,0.0,0.0,0.0,0.0,0.0,0.0,0.0,0.001505,-0.000354,0.000208,0.0,0.0,0.0,0.0,0.0,0.0,0.0,0.0,0.0,-0.071,0.032,-9.6,0.0,0.0,0.0,0.0,0.0,0.0,0.0,0.0,0.0
1581113313931609388,318,1581113313931495904,,0.864790981909,-0.00310197245978,-0.498155832571,0.867073577773,0.0,0.0,0.0,0.0,0.0,0.0,0.0,0.0,0.0,-0.000451,0.000307,0.000812,0.0,0.0,0.0,0.0,0.0,0.0,0.0,0.0,0.0,-0.108,0.056,-9.638,0.0,0.0,0.0,0.0,0.0,0.0,0.0,0.0,0.0
1581113313957029723,319,1581113313956928968,,0.864790968573,-0.00311282552841,-0.498140713084,0.867082153775,0.0,0.0,0.0,0.0,0.0,0.0,0.0,0.0,0.0,0.000245,-7.7e-05,0.000452,0.0,0.0,0.0,0.0,0.0,0.0,0.0,0.0,0.0,-0.078,0.026,-9.607,0.0,0.0,0.0,0.0,0.0,0.0,0.0,0.0,0.0
1581113313981856540,320,1581113313981674909,,0.864786586638,-0.00311279209385,-0.498148279784,0.867077806644,0.0,0.0,0.0,0.0,0.0,0.0,0.0,0.0,0.0,0.000741,-0.001108,0.000368,0.0,0.0,0.0,0.0,0.0,0.0,0.0,0.0,0.0,-0.106,0.026,-9.621,0.0,0.0,0.0,0.0,0.0,0.0,0.0,0.0,0.0
1581113314006721110,321,1581113314006613016,,0.864782204638,-0.003120358846,-0.498148273139,0.867077764045,0.0,0.0,0.0,0.0,0.0,0.0,0.0,0.0,0.0,-0.00053,-0.000654,8.8e-05,0.0,0.0,0.0,0.0,0.0,0.0,0.0,0.0,0.0,-0.075,0.042,-9.618,0.0,0.0,0.0,0.0,0.0,0.0,0.0,0.0,0.0
1581113314031808054,322,1581113314031573057,,0.86477780917,-0.00311597814336,-0.498155867012,0.867073383342,0.0,0.0,0.0,0.0,0.0,0.0,0.0,0.0,0.0,0.00111,-7.8e-05,-0.001717,0.0,0.0,0.0,0.0,0.0,0.0,0.0,0.0,0.0,-0.071,0.026,-9.557,0.0,0.0,0.0,0.0,0.0,0.0,0.0,0.0,0.0
1581113314056561425,323,1581113314056456089,,0.86475592459,-0.00311690567126,-0.498201218442,0.867047408283,0.0,0.0,0.0,0.0,0.0,0.0,0.0,0.0,0.0,0.000678,-0.000343,0.000378,0.0,0.0,0.0,0.0,0.0,0.0,0.0,0.0,0.0,-0.085,0.035,-9.594,0.0,0.0,0.0,0.0,0.0,0.0,0.0,0.0,0.0
1581113314082300571,324,1581113314082134962,,0.864769071578,-0.00310940584874,-0.498186092209,0.867056145897,0.0,0.0,0.0,0.0,0.0,0.0,0.0,0.0,0.0,-0.000821,0.000179,0.000465,0.0,0.0,0.0,0.0,0.0,0.0,0.0,0.0,0.0,-0.058,0.001,-9.61,0.0,0.0,0.0,0.0,0.0,0.0,0.0,0.0,0.0
1581113314107244937,325,1581113314107119083,,0.864777835908,-0.00310947251205,-0.498170959149,0.867064840753,0.0,0.0,0.0,0.0,0.0,0.0,0.0,0.0,0.0,6.3e-05,0.00106,0.000227,0.0,0.0,0.0,0.0,0.0,0.0,0.0,0.0,0.0,-0.1,0.009,-9.584,0.0,0.0,0.0,0.0,0.0,0.0,0.0,0.0,0.0
1581113314132161699,326,1581113314132028102,,0.86477348025,-0.00311813403558,-0.498178471352,0.867060559889,0.0,0.0,0.0,0.0,0.0,0.0,0.0,0.0,0.0,0.000539,-0.000267,-0.00083,0.0,0.0,0.0,0.0,0.0,0.0,0.0,0.0,0.0,-0.102,0.036,-9.57,0.0,0.0,0.0,0.0,0.0,0.0,0.0,0.0,0.0
1581113314156927166,327,1581113314156800985,,0.86477348025,-0.00311813403558,-0.498178471352,0.867060559889,0.0,0.0,0.0,0.0,0.0,0.0,0.0,0.0,0.0,0.000864,7.5e-05,0.000561,0.0,0.0,0.0,0.0,0.0,0.0,0.0,0.0,0.0,-0.101,0.046,-9.62,0.0,0.0,0.0,0.0,0.0,0.0,0.0,0.0,0.0
1581113314182287390,328,1581113314182157993,,0.864777862383,-0.00311056743488,-0.49817847812,0.867060602242,0.0,0.0,0.0,0.0,0.0,0.0,0.0,0.0,0.0,-0.000534,0.00054,-0.000256,0.0,0.0,0.0,0.0,0.0,0.0,0.0,0.0,0.0,-0.094,0.023,-9.596,0.0,0.0,0.0,0.0,0.0,0.0,0.0,0.0,0.0
1581113314207236811,329,1581113314207083940,,0.864786626449,-0.00311063375771,-0.498163344982,0.867069296965,0.0,0.0,0.0,0.0,0.0,0.0,0.0,0.0,0.0,-0.000681,0.00156,0.001091,0.0,0.0,0.0,0.0,0.0,0.0,0.0,0.0,0.0,-0.086,0.052,-9.607,0.0,0.0,0.0,0.0,0.0,0.0,0.0,0.0,0.0
1581113314232264806,330,1581113314232114076,,0.864790995179,-0.0031063196894,-0.498155805483,0.867073611033,0.0,0.0,0.0,0.0,0.0,0.0,0.0,0.0,0.0,0.000458,-0.000743,0.000213,0.0,0.0,0.0,0.0,0.0,0.0,0.0,0.0,0.0,-0.089,0.043,-9.592,0.0,0.0,0.0,0.0,0.0,0.0,0.0,0.0,0.0
1581113314257147578,331,1581113314257018089,,0.864786599974,-0.00310193916666,-0.498163399197,0.867069230511,0.0,0.0,0.0,0.0,0.0,0.0,0.0,0.0,0.0,-0.00044,0.000562,0.001872,0.0,0.0,0.0,0.0,0.0,0.0,0.0,0.0,0.0,-0.086,0.045,-9.598,0.0,0.0,0.0,0.0,0.0,0.0,0.0,0.0,0.0
1581113314281953183,332,1581113314281821966,,0.864786586638,-0.00310519194462,-0.498155853053,0.86707350198,0.0,0.0,0.0,0.0,0.0,0.0,0.0,0.0,0.0,-0.000828,-0.000524,-0.000232,0.0,0.0,0.0,0.0,0.0,0.0,0.0,0.0,0.0,-0.082,0.023,-9.54,0.0,0.0,0.0,0.0,0.0,0.0,0.0,0.0,0.0
1581113314307036682,333,1581113314306909084,,0.864786573236,-0.00310084471458,-0.498155880132,0.86707346855,0.0,0.0,0.0,0.0,0.0,0.0,0.0,0.0,0.0,-0.000295,-0.000916,-0.001379,0.0,0.0,0.0,0.0,0.0,0.0,0.0,0.0,0.0,-0.093,0.025,-9.579,0.0,0.0,0.0,0.0,0.0,0.0,0.0,0.0,0.0
1581113314332167934,334,1581113314332041025,,0.86477780917,-0.00310837792803,-0.498163440215,0.867069078716,0.0,0.0,0.0,0.0,0.0,0.0,0.0,0.0,0.0,-0.000281,-0.001296,-0.000702,0.0,0.0,0.0,0.0,0.0,0.0,0.0,0.0,0.0,-0.097,0.023,-9.601,0.0,0.0,0.0,0.0,0.0,0.0,0.0,0.0,0.0
1581113314357194087,335,1581113314357064008,,0.864777822572,-0.00311272522404,-0.498163413071,0.867069112184,0.0,0.0,0.0,0.0,0.0,0.0,0.0,0.0,0.0,-0.000631,-0.001393,0.000304,0.0,0.0,0.0,0.0,0.0,0.0,0.0,0.0,0.0,-0.086,0.015,-9.596,0.0,0.0,0.0,0.0,0.0,0.0,0.0,0.0,0.0
1581113314382344770,336,1581113314382210969,,0.864786573236,-0.00310844492991,-0.498148306929,0.867077773176,0.0,0.0,0.0,0.0,0.0,0.0,0.0,0.0,0.0,-0.000681,-0.000438,0.000139,0.0,0.0,0.0,0.0,0.0,0.0,0.0,0.0,0.0,-0.102,0.033,-9.591,0.0,0.0,0.0,0.0,0.0,0.0,0.0,0.0,0.0
1581113314406901104,337,1581113314406722068,,0.864769044841,-0.00312351128046,-0.498163427019,0.867068993376,0.0,0.0,0.0,0.0,0.0,0.0,0.0,0.0,0.0,0.00028,-0.000154,-0.000214,0.0,0.0,0.0,0.0,0.0,0.0,0.0,0.0,0.0,-0.096,0.025,-9.603,0.0,0.0,0.0,0.0,0.0,0.0,0.0,0.0,0.0
1581113314432019024,338,1581113314431891918,,0.864773413571,-0.0031191976273,-0.498155887634,0.867073307029,0.0,0.0,0.0,0.0,0.0,0.0,0.0,0.0,0.0,-0.001451,0.000264,0.000256,0.0,0.0,0.0,0.0,0.0,0.0,0.0,0.0,0.0,-0.09,0.036,-9.62,0.0,0.0,0.0,0.0,0.0,0.0,0.0,0.0,0.0
1581113314457214991,339,1581113314457083940,,0.864773427039,-0.00313114518582,-0.49814828708,0.867077645067,0.0,0.0,0.0,0.0,0.0,0.0,0.0,0.0,0.0,-4.6e-05,-0.001591,0.001293,0.0,0.0,0.0,0.0,0.0,0.0,0.0,0.0,0.0,-0.078,0.027,-9.603,0.0,0.0,0.0,0.0,0.0,0.0,0.0,0.0,0.0
1581113314483200256,340,1581113314483036994,,0.864769044841,-0.00312351128046,-0.498163427019,0.867068993376,0.0,0.0,0.0,0.0,0.0,0.0,0.0,0.0,0.0,-0.000899,0.000891,0.000203,0.0,0.0,0.0,0.0,0.0,0.0,0.0,0.0,0.0,-0.084,0.044,-9.599,0.0,0.0,0.0,0.0,0.0,0.0,0.0,0.0,0.0
1581113314507252482,341,1581113314507097959,,0.86477780917,-0.00312357843409,-0.498148293734,0.867077687836,0.0,0.0,0.0,0.0,0.0,0.0,0.0,0.0,0.0,0.00013,3.1e-05,0.001328,0.0,0.0,0.0,0.0,0.0,0.0,0.0,0.0,0.0,-0.089,0.048,-9.584,0.0,0.0,0.0,0.0,0.0,0.0,0.0,0.0,0.0
1581113314533988045,342,1581113314533843040,,0.864786573236,-0.00312364558676,-0.498133160298,0.867086382032,0.0,0.0,0.0,0.0,0.0,0.0,0.0,0.0,0.0,0.000654,-0.000396,0.001337,0.0,0.0,0.0,0.0,0.0,0.0,0.0,0.0,0.0,-0.099,0.028,-9.571,0.0,0.0,0.0,0.0,0.0,0.0,0.0,0.0,0.0
1581113314566866375,343,1581113314566510915,,0.864786559769,-0.00312689906236,-0.498125614176,0.867090652615,0.0,0.0,0.0,0.0,0.0,0.0,0.0,0.0,0.0,-0.000818,-0.00045,-0.001223,0.0,0.0,0.0,0.0,0.0,0.0,0.0,0.0,0.0,-0.064,0.055,-9.568,0.0,0.0,0.0,0.0,0.0,0.0,0.0,0.0,0.0
1581113314583541363,344,1581113314583334922,,0.86476901784,-0.00312241711087,-0.498155908313,0.867073230509,0.0,0.0,0.0,0.0,0.0,0.0,0.0,0.0,0.0,-0.000464,-0.001429,-0.000609,0.0,0.0,0.0,0.0,0.0,0.0,0.0,0.0,0.0,-0.08,0.06,-9.625,0.0,0.0,0.0,0.0,0.0,0.0,0.0,0.0,0.0
1581113314606934823,345,1581113314606820106,,0.864773372773,-0.00311375652837,-0.498148396074,0.867077510081,0.0,0.0,0.0,0.0,0.0,0.0,0.0,0.0,0.0,-0.001543,-0.001353,-0.000185,0.0,0.0,0.0,0.0,0.0,0.0,0.0,0.0,0.0,-0.074,0.033,-9.579,0.0,0.0,0.0,0.0,0.0,0.0,0.0,0.0,0.0
1581113314632846519,346,1581113314632699012,,0.86478213697,-0.00310622361699,-0.498140835766,0.867081900134,0.0,0.0,0.0,0.0,0.0,0.0,0.0,0.0,0.0,0.000164,-0.000171,0.000604,0.0,0.0,0.0,0.0,0.0,0.0,0.0,0.0,0.0,-0.098,0.043,-9.613,0.0,0.0,0.0,0.0,0.0,0.0,0.0,0.0,0.0
1581113314657617803,347,1581113314657510995,,0.86478213697,-0.00309862302421,-0.498148408816,0.867077595856,0.0,0.0,0.0,0.0,0.0,0.0,0.0,0.0,0.0,-0.000659,0.001397,0.00126,0.0,0.0,0.0,0.0,0.0,0.0,0.0,0.0,0.0,-0.092,0.024,-9.636,0.0,0.0,0.0,0.0,0.0,0.0,0.0,0.0,0.0
1581113314682415982,348,1581113314682310104,,0.864764608312,-0.00309848781126,-0.498178675231,0.867060206668,0.0,0.0,0.0,0.0,0.0,0.0,0.0,0.0,0.0,-0.000996,-0.001479,-1.3e-05,0.0,0.0,0.0,0.0,0.0,0.0,0.0,0.0,0.0,-0.079,0.033,-9.587,0.0,0.0,0.0,0.0,0.0,0.0,0.0,0.0,0.0
1581113314706999327,349,1581113314706871032,,0.864755829857,-0.00309407264212,-0.49819383523,0.867051477841,0.0,0.0,0.0,0.0,0.0,0.0,0.0,0.0,0.0,0.00072,3.2e-05,0.001471,0.0,0.0,0.0,0.0,0.0,0.0,0.0,0.0,0.0,-0.08,0.041,-9.58,0.0,0.0,0.0,0.0,0.0,0.0,0.0,0.0,0.0
1581113314732768896,350,1581113314732631921,,0.864742696008,-0.00309831878976,-0.498216507395,0.867038468698,0.0,0.0,0.0,0.0,0.0,0.0,0.0,0.0,0.0,0.000954,-0.000415,0.000304,0.0,0.0,0.0,0.0,0.0,0.0,0.0,0.0,0.0,-0.065,0.013,-9.622,0.0,0.0,0.0,0.0,0.0,0.0,0.0,0.0,0.0
1581113314756928148,351,1581113314756822109,,0.86473394429,-0.00309499903411,-0.498239185567,0.867025501646,0.0,0.0,0.0,0.0,0.0,0.0,0.0,0.0,0.0,-0.000785,0.000608,-0.000434,0.0,0.0,0.0,0.0,0.0,0.0,0.0,0.0,0.0,-0.078,0.036,-9.593,0.0,0.0,0.0,0.0,0.0,0.0,0.0,0.0,0.0
1581113314782708740,352,1581113314782577037,,0.864738327014,-0.00308743273676,-0.498239191914,0.86702554433,0.0,0.0,0.0,0.0,0.0,0.0,0.0,0.0,0.0,-0.000778,8.8e-05,0.000994,0.0,0.0,0.0,0.0,0.0,0.0,0.0,0.0,0.0,-0.071,0.03,-9.605,0.0,0.0,0.0,0.0,0.0,0.0,0.0,0.0,0.0
1581113314807493003,353,1581113314807384967,,0.864738354146,-0.00309612865065,-0.498239137953,0.867025611525,0.0,0.0,0.0,0.0,0.0,0.0,0.0,0.0,0.0,-0.001029,0.000988,0.0004,0.0,0.0,0.0,0.0,0.0,0.0,0.0,0.0,0.0,-0.088,0.045,-9.636,0.0,0.0,0.0,0.0,0.0,0.0,0.0,0.0,0.0
1581113314833175821,354,1581113314833066940,,0.864712056812,-0.0030883278916,-0.498292107047,0.866995216752,0.0,0.0,0.0,0.0,0.0,0.0,0.0,0.0,0.0,-0.000157,0.00081,-0.001482,0.0,0.0,0.0,0.0,0.0,0.0,0.0,0.0,0.0,-0.113,0.024,-9.595,0.0,0.0,0.0,0.0,0.0,0.0,0.0,0.0,0.0
1581113314857036797,355,1581113314856929063,,0.864707673692,-0.00308829439614,-0.498299672989,0.8669908683,0.0,0.0,0.0,0.0,0.0,0.0,0.0,0.0,0.0,-0.001003,-0.000367,-4e-05,0.0,0.0,0.0,0.0,0.0,0.0,0.0,0.0,0.0,-0.109,0.032,-9.605,0.0,0.0,0.0,0.0,0.0,0.0,0.0,0.0,0.0
1581113314882869558,356,1581113314882704019,,0.864707673692,-0.00308069494425,-0.498307245299,0.866986562258,0.0,0.0,0.0,0.0,0.0,0.0,0.0,0.0,0.0,-0.00079,0.000686,0.000907,0.0,0.0,0.0,0.0,0.0,0.0,0.0,0.0,0.0,-0.077,0.033,-9.63,0.0,0.0,0.0,0.0,0.0,0.0,0.0,0.0,0.0
1581113314908166883,357,1581113314908046007,,0.864698920722,-0.00307737747609,-0.498329922317,0.866973592105,0.0,0.0,0.0,0.0,0.0,0.0,0.0,0.0,0.0,-0.000906,0.000723,-0.001321,0.0,0.0,0.0,0.0,0.0,0.0,0.0,0.0,0.0,-0.086,0.01,-9.594,0.0,0.0,0.0,0.0,0.0,0.0,0.0,0.0,0.0
1581113314933073357,358,1581113314932934999,,0.864698920722,-0.00308497671105,-0.498322350091,0.866977898449,0.0,0.0,0.0,0.0,0.0,0.0,0.0,0.0,0.0,-0.000843,-0.0008,-0.000598,0.0,0.0,0.0,0.0,0.0,0.0,0.0,0.0,0.0,-0.066,0.021,-9.617,0.0,0.0,0.0,0.0,0.0,0.0,0.0,0.0,0.0
1581113314965960273,359,1581113314965498924,,0.864681400459,-0.00308919208681,-0.498352586085,0.86696053655,0.0,0.0,0.0,0.0,0.0,0.0,0.0,0.0,0.0,-0.000699,0.000458,0.000896,0.0,0.0,0.0,0.0,0.0,0.0,0.0,0.0,0.0,-0.08,0.043,-9.605,0.0,0.0,0.0,0.0,0.0,0.0,0.0,0.0,0.0
1581113314983384031,360,1581113314983232975,,0.864677016878,-0.00308915875947,-0.498360151724,0.86695618757,0.0,0.0,0.0,0.0,0.0,0.0,0.0,0.0,0.0,0.001253,-0.000371,-0.000555,0.0,0.0,0.0,0.0,0.0,0.0,0.0,0.0,0.0,-0.073,0.029,-9.602,0.0,0.0,0.0,0.0,0.0,0.0,0.0,0.0,0.0
1581113315008124226,361,1581113315007976055,,0.864672646566,-0.00308587563405,-0.498375262482,0.866947565003,0.0,0.0,0.0,0.0,0.0,0.0,0.0,0.0,0.0,0.000302,-0.000755,-0.001061,0.0,0.0,0.0,0.0,0.0,0.0,0.0,0.0,0.0,-0.104,0.023,-9.595,0.0,0.0,0.0,0.0,0.0,0.0,0.0,0.0,0.0
1581113315032798827,362,1581113315032660961,,0.864677030212,-0.00309350777211,-0.498360124747,0.866956220865,0.0,0.0,0.0,0.0,0.0,0.0,0.0,0.0,0.0,0.000621,-0.001082,-0.000168,0.0,0.0,0.0,0.0,0.0,0.0,0.0,0.0,0.0,-0.076,0.022,-9.604,0.0,0.0,0.0,0.0,0.0,0.0,0.0,0.0,0.0
1581113315057557884,363,1581113315057451963,,0.864677043481,-0.00309785678451,-0.498360097733,0.866956254093,0.0,0.0,0.0,0.0,0.0,0.0,0.0,0.0,0.0,0.000443,-0.000367,0.000494,0.0,0.0,0.0,0.0,0.0,0.0,0.0,0.0,0.0,-0.091,0.02,-9.595,0.0,0.0,0.0,0.0,0.0,0.0,0.0,0.0,0.0
1581113315082583933,364,1581113315082479000,,0.864668289324,-0.0030945408308,-0.498382774074,0.866943282142,0.0,0.0,0.0,0.0,0.0,0.0,0.0,0.0,0.0,0.000209,-0.001114,-0.001171,0.0,0.0,0.0,0.0,0.0,0.0,0.0,0.0,0.0,-0.076,0.019,-9.609,0.0,0.0,0.0,0.0,0.0,0.0,0.0,0.0,0.0
1581113315107912674,365,1581113315107764959,,0.864668315532,-0.00310323925067,-0.498382719988,0.866943348194,0.0,0.0,0.0,0.0,0.0,0.0,0.0,0.0,0.0,0.000886,-6.1e-05,0.00036,0.0,0.0,0.0,0.0,0.0,0.0,0.0,0.0,0.0,-0.09,0.025,-9.583,0.0,0.0,0.0,0.0,0.0,0.0,0.0,0.0,0.0
1581113315133084680,366,1581113315132977962,,0.864655150928,-0.00310638948882,-0.49839787122,0.866934574467,0.0,0.0,0.0,0.0,0.0,0.0,0.0,0.0,0.0,8.4e-05,0.000598,2.1e-05,0.0,0.0,0.0,0.0,0.0,0.0,0.0,0.0,0.0,-0.087,0.021,-9.595,0.0,0.0,0.0,0.0,0.0,0.0,0.0,0.0,0.0
1581113315157868231,367,1581113315157707929,,0.864642011873,-0.00311063983397,-0.498420540217,0.866921559177,0.0,0.0,0.0,0.0,0.0,0.0,0.0,0.0,0.0,-0.001373,0.00022,0.000551,0.0,0.0,0.0,0.0,0.0,0.0,0.0,0.0,0.0,-0.092,0.051,-9.598,0.0,0.0,0.0,0.0,0.0,0.0,0.0,0.0,0.0
1581113315182608712,368,1581113315182462930,,0.864628872159,-0.00311489057288,-0.498443208836,0.866908543227,0.0,0.0,0.0,0.0,0.0,0.0,0.0,0.0,0.0,-0.000685,0.000152,-0.001189,0.0,0.0,0.0,0.0,0.0,0.0,0.0,0.0,0.0,-0.11,0.039,-9.589,0.0,0.0,0.0,0.0,0.0,0.0,0.0,0.0,0.0
1581113315207403151,369,1581113315207298994,,0.864624487788,-0.00311485763883,-0.498450774021,0.866904193457,0.0,0.0,0.0,0.0,0.0,0.0,0.0,0.0,0.0,-4.8e-05,7e-06,-0.000577,0.0,0.0,0.0,0.0,0.0,0.0,0.0,0.0,0.0,-0.088,0.046,-9.611,0.0,0.0,0.0,0.0,0.0,0.0,0.0,0.0,0.0
1581113315232930959,370,1581113315232825040,,0.864615731787,-0.00312673977064,-0.498458304959,0.866899834389,0.0,0.0,0.0,0.0,0.0,0.0,0.0,0.0,0.0,4.8e-05,-0.000806,0.000688,0.0,0.0,0.0,0.0,0.0,0.0,0.0,0.0,0.0,-0.09,0.027,-9.597,0.0,0.0,0.0,0.0,0.0,0.0,0.0,0.0,0.0
1581113315257920478,371,1581113315257780075,,0.864611347218,-0.00312670686418,-0.498465870069,0.866895484486,0.0,0.0,0.0,0.0,0.0,0.0,0.0,0.0,0.0,0.000577,-0.001184,-0.001,0.0,0.0,0.0,0.0,0.0,0.0,0.0,0.0,0.0,-0.084,0.047,-9.618,0.0,0.0,0.0,0.0,0.0,0.0,0.0,0.0,0.0
1581113315282611126,372,1581113315282501935,,0.864606962583,-0.0031342720226,-0.498465863022,0.866895442287,0.0,0.0,0.0,0.0,0.0,0.0,0.0,0.0,0.0,4.3e-05,-0.000227,0.000114,0.0,0.0,0.0,0.0,0.0,0.0,0.0,0.0,0.0,-0.089,0.043,-9.61,0.0,0.0,0.0,0.0,0.0,0.0,0.0,0.0,0.0
1581113315307541778,373,1581113315307383060,,0.864615731787,-0.00312673977064,-0.498458304959,0.866899834389,0.0,0.0,0.0,0.0,0.0,0.0,0.0,0.0,0.0,-0.00017,0.0001,-0.000949,0.0,0.0,0.0,0.0,0.0,0.0,0.0,0.0,0.0,-0.09,0.048,-9.604,0.0,0.0,0.0,0.0,0.0,0.0,0.0,0.0,0.0
1581113315332513106,374,1581113315332365989,,0.864606962583,-0.00311147805356,-0.49848857915,0.866882518583,0.0,0.0,0.0,0.0,0.0,0.0,0.0,0.0,0.0,-0.000145,-0.000724,-0.000946,0.0,0.0,0.0,0.0,0.0,0.0,0.0,0.0,0.0,-0.099,0.024,-9.597,0.0,0.0,0.0,0.0,0.0,0.0,0.0,0.0,0.0
1581113315358719082,375,1581113315358614921,,0.864598205989,-0.00311576265575,-0.498503681857,0.866873850983,0.0,0.0,0.0,0.0,0.0,0.0,0.0,0.0,0.0,4e-06,-0.000192,-0.000502,0.0,0.0,0.0,0.0,0.0,0.0,0.0,0.0,0.0,-0.073,0.041,-9.588,0.0,0.0,0.0,0.0,0.0,0.0,0.0,0.0,0.0
1581113315382988237,376,1581113315382880926,,0.864602564945,-0.00309189936362,-0.498511314742,0.866869519031,0.0,0.0,0.0,0.0,0.0,0.0,0.0,0.0,0.0,0.000321,0.000218,-0.000619,0.0,0.0,0.0,0.0,0.0,0.0,0.0,0.0,0.0,-0.101,0.051,-9.596,0.0,0.0,0.0,0.0,0.0,0.0,0.0,0.0,0.0
1581113315407925836,377,1581113315407788038,,0.864585012481,-0.0030950151838,-0.498534029359,0.866856392872,0.0,0.0,0.0,0.0,0.0,0.0,0.0,0.0,0.0,-0.000486,-0.000474,-0.001266,0.0,0.0,0.0,0.0,0.0,0.0,0.0,0.0,0.0,-0.085,0.026,-9.59,0.0,0.0,0.0,0.0,0.0,0.0,0.0,0.0,0.0
1581113315432648309,378,1581113315432543992,,0.864589410448,-0.00309180089603,-0.498534009162,0.866856467738,0.0,0.0,0.0,0.0,0.0,0.0,0.0,0.0,0.0,0.00016,0.001121,0.000899,0.0,0.0,0.0,0.0,0.0,0.0,0.0,0.0,0.0,-0.095,0.011,-9.568,0.0,0.0,0.0,0.0,0.0,0.0,0.0,0.0,0.0
1581113315457431172,379,1581113315457326889,,0.864563099678,-0.0031067989342,-0.498564254153,0.86683898108,0.0,0.0,0.0,0.0,0.0,0.0,0.0,0.0,0.0,-0.00067,-0.001017,-0.000198,0.0,0.0,0.0,0.0,0.0,0.0,0.0,0.0,0.0,-0.07,0.023,-9.587,0.0,0.0,0.0,0.0,0.0,0.0,0.0,0.0,0.0
1581113315483048349,380,1581113315482943058,,0.864567484971,-0.00310683183384,-0.498556689537,0.866843331841,0.0,0.0,0.0,0.0,0.0,0.0,0.0,0.0,0.0,0.000735,0.000401,-0.000401,0.0,0.0,0.0,0.0,0.0,0.0,0.0,0.0,0.0,-0.083,0.028,-9.633,0.0,0.0,0.0,0.0,0.0,0.0,0.0,0.0,0.0
1581113315507932784,381,1581113315507817029,,0.864549943404,-0.00310670023386,-0.498586947774,0.866825928402,0.0,0.0,0.0,0.0,0.0,0.0,0.0,0.0,0.0,-0.000978,-0.000376,0.000837,0.0,0.0,0.0,0.0,0.0,0.0,0.0,0.0,0.0,-0.084,0.035,-9.584,0.0,0.0,0.0,0.0,0.0,0.0,0.0,0.0,0.0
1581113315533633425,382,1581113315533498048,,0.864545544844,-0.00310231627522,-0.49859453933,0.866821544443,0.0,0.0,0.0,0.0,0.0,0.0,0.0,0.0,0.0,-9e-06,-0.000109,-0.000907,0.0,0.0,0.0,0.0,0.0,0.0,0.0,0.0,0.0,-0.091,0.027,-9.587,0.0,0.0,0.0,0.0,0.0,0.0,0.0,0.0,0.0
1581113315557825079,383,1581113315557672977,,0.864541159222,-0.00310228330839,-0.498602103756,0.866817193352,0.0,0.0,0.0,0.0,0.0,0.0,0.0,0.0,0.0,-0.000371,-0.000932,0.000258,0.0,0.0,0.0,0.0,0.0,0.0,0.0,0.0,0.0,-0.074,0.02,-9.604,0.0,0.0,0.0,0.0,0.0,0.0,0.0,0.0,0.0
1581113315582621331,384,1581113315582461118,,0.864541159222,-0.00310988078885,-0.498594532485,0.866821502301,0.0,0.0,0.0,0.0,0.0,0.0,0.0,0.0,0.0,-0.000243,-0.000237,-0.001262,0.0,0.0,0.0,0.0,0.0,0.0,0.0,0.0,0.0,-0.074,0.038,-9.61,0.0,0.0,0.0,0.0,0.0,0.0,0.0,0.0,0.0
1581113315608715324,385,1581113315608572006,,0.864536760465,-0.0031054966598,-0.49860212403,0.866817118172,0.0,0.0,0.0,0.0,0.0,0.0,0.0,0.0,0.0,0.000806,-0.001214,-0.000188,0.0,0.0,0.0,0.0,0.0,0.0,0.0,0.0,0.0,-0.083,0.016,-9.601,0.0,0.0,0.0,0.0,0.0,0.0,0.0,0.0,0.0
1581113315642828069,386,1581113315642363071,,0.864545531775,-0.0030827702748,-0.498609708642,0.866812893356,0.0,0.0,0.0,0.0,0.0,0.0,0.0,0.0,0.0,0.000489,0.001803,-0.000162,0.0,0.0,0.0,0.0,0.0,0.0,0.0,0.0,0.0,-0.087,0.027,-9.59,0.0,0.0,0.0,0.0,0.0,0.0,0.0,0.0,0.0
1581113315663174170,387,1581113315663007020,,0.864545531775,-0.00309036770813,-0.49860213755,0.866817202466,0.0,0.0,0.0,0.0,0.0,0.0,0.0,0.0,0.0,0.000737,0.0002,-0.001063,0.0,0.0,0.0,0.0,0.0,0.0,0.0,0.0,0.0,-0.067,0.035,-9.609,0.0,0.0,0.0,0.0,0.0,0.0,0.0,0.0,0.0
1581113315682753122,388,1581113315682591915,,0.864549904196,-0.00307845210729,-0.498602171137,0.866817211523,0.0,0.0,0.0,0.0,0.0,0.0,0.0,0.0,0.0,-4.8e-05,-0.000759,-7e-06,0.0,0.0,0.0,0.0,0.0,0.0,0.0,0.0,0.0,-0.104,0.05,-9.583,0.0,0.0,0.0,0.0,0.0,0.0,0.0,0.0,0.0
1581113315707624767,389,1581113315707473993,,0.864549904196,-0.00308604964442,-0.498594600074,0.866821520529,0.0,0.0,0.0,0.0,0.0,0.0,0.0,0.0,0.0,0.000515,0.001142,0.00037,0.0,0.0,0.0,0.0,0.0,0.0,0.0,0.0,0.0,-0.051,0.047,-9.576,0.0,0.0,0.0,0.0,0.0,0.0,0.0,0.0,0.0
1581113315733056875,390,1581113315732952117,,0.864541133018,-0.00308598352241,-0.498609728888,0.86681281828,0.0,0.0,0.0,0.0,0.0,0.0,0.0,0.0,0.0,-0.000502,0.000586,8.8e-05,0.0,0.0,0.0,0.0,0.0,0.0,0.0,0.0,0.0,-0.094,0.044,-9.602,0.0,0.0,0.0,0.0,0.0,0.0,0.0,0.0,0.0
1581113315758362318,391,1581113315758244037,,0.864541146153,-0.00309793218408,-0.498602130809,0.866817160352,0.0,0.0,0.0,0.0,0.0,0.0,0.0,0.0,0.0,-6.7e-05,0.000139,-0.000592,0.0,0.0,0.0,0.0,0.0,0.0,0.0,0.0,0.0,-0.087,0.034,-9.587,0.0,0.0,0.0,0.0,0.0,0.0,0.0,0.0,0.0
1581113315783215838,392,1581113315783096075,,0.864541133018,-0.00309358105955,-0.498602157825,0.866817127286,0.0,0.0,0.0,0.0,0.0,0.0,0.0,0.0,0.0,-0.00021,-0.00015,0.001178,0.0,0.0,0.0,0.0,0.0,0.0,0.0,0.0,0.0,-0.079,0.042,-9.611,0.0,0.0,0.0,0.0,0.0,0.0,0.0,0.0,0.0
1581113315808003201,393,1581113315807876110,,0.86453674733,-0.00308595046105,-0.498617293238,0.866808467056,0.0,0.0,0.0,0.0,0.0,0.0,0.0,0.0,0.0,0.000851,0.001105,-0.000759,0.0,0.0,0.0,0.0,0.0,0.0,0.0,0.0,0.0,-0.098,0.029,-9.6,0.0,0.0,0.0,0.0,0.0,0.0,0.0,0.0,0.0
1581113315832414534,394,1581113315832318067,,0.864541133018,-0.00308598352241,-0.498609728888,0.86681281828,0.0,0.0,0.0,0.0,0.0,0.0,0.0,0.0,0.0,-0.000486,9.1e-05,0.001263,0.0,0.0,0.0,0.0,0.0,0.0,0.0,0.0,0.0,-0.082,0.028,-9.556,0.0,0.0,0.0,0.0,0.0,0.0,0.0,0.0,0.0
1581113315858059634,395,1581113315857953071,,0.864527962557,-0.00307393553423,-0.498640019543,0.866795422017,0.0,0.0,0.0,0.0,0.0,0.0,0.0,0.0,0.0,-0.001091,0.001172,-0.000761,0.0,0.0,0.0,0.0,0.0,0.0,0.0,0.0,0.0,-0.097,0.012,-9.626,0.0,0.0,0.0,0.0,0.0,0.0,0.0,0.0,0.0
1581113315882780465,396,1581113315882668018,,0.864527975757,-0.00308588433763,-0.498632421823,0.866799764411,0.0,0.0,0.0,0.0,0.0,0.0,0.0,0.0,0.0,-0.000408,-0.001547,-0.000823,0.0,0.0,0.0,0.0,0.0,0.0,0.0,0.0,0.0,-0.089,0.042,-9.592,0.0,0.0,0.0,0.0,0.0,0.0,0.0,0.0,0.0
1581113315907852131,397,1581113315907704114,,0.86453674733,-0.00308595046105,-0.498617293238,0.866808467056,0.0,0.0,0.0,0.0,0.0,0.0,0.0,0.0,0.0,-0.000275,-0.000576,-0.000778,0.0,0.0,0.0,0.0,0.0,0.0,0.0,0.0,0.0,-0.106,0.033,-9.586,0.0,0.0,0.0,0.0,0.0,0.0,0.0,0.0,0.0
1581113315932850658,398,1581113315932712078,,0.864541133018,-0.00308598352241,-0.498609728888,0.86681281828,0.0,0.0,0.0,0.0,0.0,0.0,0.0,0.0,0.0,-0.000756,-2.4e-05,-7.5e-05,0.0,0.0,0.0,0.0,0.0,0.0,0.0,0.0,0.0,-0.071,0.026,-9.567,0.0,0.0,0.0,0.0,0.0,0.0,0.0,0.0,0.0
1581113315957982152,399,1581113315957870960,,0.864532361577,-0.00308591739946,-0.49862485755,0.866804115766,0.0,0.0,0.0,0.0,0.0,0.0,0.0,0.0,0.0,-0.000367,0.001532,0.00028,0.0,0.0,0.0,0.0,0.0,0.0,0.0,0.0,0.0,-0.111,0.019,-9.601,0.0,0.0,0.0,0.0,0.0,0.0,0.0,0.0,0.0
1581113315982680125,400,1581113315982570886,,0.864506045672,-0.00307812186519,-0.49867781331,0.866773696975,0.0,0.0,0.0,0.0,0.0,0.0,0.0,0.0,0.0,-0.000839,0.001056,-0.000402,0.0,0.0,0.0,0.0,0.0,0.0,0.0,0.0,0.0,-0.059,0.033,-9.598,0.0,0.0,0.0,0.0,0.0,0.0,0.0,0.0,0.0
1581113316007819368,401,1581113316007671117,,0.86451919072,-0.00307386935332,-0.498655147901,0.866786718975,0.0,0.0,0.0,0.0,0.0,0.0,0.0,0.0,0.0,-0.001744,-0.00023,0.001635,0.0,0.0,0.0,0.0,0.0,0.0,0.0,0.0,0.0,-0.076,0.022,-9.582,0.0,0.0,0.0,0.0,0.0,0.0,0.0,0.0,0.0
1581113316033092841,402,1581113316032978057,,0.864523589872,-0.00307825396484,-0.498647556897,0.866791103586,0.0,0.0,0.0,0.0,0.0,0.0,0.0,0.0,0.0,-0.000902,-0.000802,-0.001249,0.0,0.0,0.0,0.0,0.0,0.0,0.0,0.0,0.0,-0.087,0.032,-9.596,0.0,0.0,0.0,0.0,0.0,0.0,0.0,0.0,0.0
1581113316057850300,403,1581113316057702064,,0.864527988892,-0.00308263844388,-0.498639965816,0.866795488065,0.0,0.0,0.0,0.0,0.0,0.0,0.0,0.0,0.0,0.000886,0.000551,-0.000906,0.0,0.0,0.0,0.0,0.0,0.0,0.0,0.0,0.0,-0.089,0.036,-9.598,0.0,0.0,0.0,0.0,0.0,0.0,0.0,0.0,0.0
1581113316082547938,404,1581113316082391977,,0.864519217055,-0.00307497539558,-0.498662664966,0.866782475386,0.0,0.0,0.0,0.0,0.0,0.0,0.0,0.0,0.0,-0.000292,-0.000443,0.000269,0.0,0.0,0.0,0.0,0.0,0.0,0.0,0.0,0.0,-0.08,0.036,-9.614,0.0,0.0,0.0,0.0,0.0,0.0,0.0,0.0,0.0
1581113316107638151,405,1581113316107486009,,0.864519217055,-0.00307497539558,-0.498662664966,0.866782475386,0.0,0.0,0.0,0.0,0.0,0.0,0.0,0.0,0.0,0.000106,-0.000337,0.001183,0.0,0.0,0.0,0.0,0.0,0.0,0.0,0.0,0.0,-0.092,0.047,-9.612,0.0,0.0,0.0,0.0,0.0,0.0,0.0,0.0,0.0
1581113316133045567,406,1581113316132936954,,0.864506058806,-0.00307487663174,-0.498685357108,0.866769420131,0.0,0.0,0.0,0.0,0.0,0.0,0.0,0.0,0.0,-0.00129,-0.000277,0.001097,0.0,0.0,0.0,0.0,0.0,0.0,0.0,0.0,0.0,-0.075,0.037,-9.612,0.0,0.0,0.0,0.0,0.0,0.0,0.0,0.0,0.0
1581113316157984568,407,1581113316157875061,,0.864492899965,-0.00307477786579,-0.498708048907,0.866756364282,0.0,0.0,0.0,0.0,0.0,0.0,0.0,0.0,0.0,0.000708,-0.000424,0.000467,0.0,0.0,0.0,0.0,0.0,0.0,0.0,0.0,0.0,-0.098,0.025,-9.591,0.0,0.0,0.0,0.0,0.0,0.0,0.0,0.0,0.0
1581113316182751315,408,1581113316182636022,,0.864470980314,-0.00307896562983,-0.498745840963,0.866734636103,0.0,0.0,0.0,0.0,0.0,0.0,0.0,0.0,0.0,-0.000847,0.001176,0.001269,0.0,0.0,0.0,0.0,0.0,0.0,0.0,0.0,0.0,-0.094,0.036,-9.586,0.0,0.0,0.0,0.0,0.0,0.0,0.0,0.0,0.0
1581113316207591686,409,1581113316207479953,,0.864457819893,-0.00307886705628,-0.498768531852,0.866721578671,0.0,0.0,0.0,0.0,0.0,0.0,0.0,0.0,0.0,0.00125,0.000103,0.000426,0.0,0.0,0.0,0.0,0.0,0.0,0.0,0.0,0.0,-0.102,0.051,-9.591,0.0,0.0,0.0,0.0,0.0,0.0,0.0,0.0,0.0
1581113316232492790,410,1581113316232386112,,0.864462193698,-0.00307454740371,-0.49876099511,0.866725898323,0.0,0.0,0.0,0.0,0.0,0.0,0.0,0.0,0.0,-0.000714,-0.001908,0.001719,0.0,0.0,0.0,0.0,0.0,0.0,0.0,0.0,0.0,-0.074,0.03,-9.595,0.0,0.0,0.0,0.0,0.0,0.0,0.0,0.0,0.0
1581113316257685581,411,1581113316257586002,,0.864453406753,-0.00307772554374,-0.498768578905,0.866721470804,0.0,0.0,0.0,0.0,0.0,0.0,0.0,0.0,0.0,-0.000809,-0.002253,-0.001603,0.0,0.0,0.0,0.0,0.0,0.0,0.0,0.0,0.0,-0.09,0.034,-9.588,0.0,0.0,0.0,0.0,0.0,0.0,0.0,0.0,0.0
1581113316283046400,412,1581113316282912969,,0.864466554172,-0.00307347224821,-0.498745914859,0.866734495177,0.0,0.0,0.0,0.0,0.0,0.0,0.0,0.0,0.0,-0.000969,-0.000887,0.000649,0.0,0.0,0.0,0.0,0.0,0.0,0.0,0.0,0.0,-0.054,0.028,-9.645,0.0,0.0,0.0,0.0,0.0,0.0,0.0,0.0,0.0
1581113316308047981,413,1581113316307900905,,0.864449006549,-0.00307333987235,-0.498776169297,0.866717085133,0.0,0.0,0.0,0.0,0.0,0.0,0.0,0.0,0.0,-0.000663,0.000254,-0.00022,0.0,0.0,0.0,0.0,0.0,0.0,0.0,0.0,0.0,-0.097,0.039,-9.606,0.0,0.0,0.0,0.0,0.0,0.0,0.0,0.0,0.0
1581113316332618063,414,1581113316332505941,,0.864440232342,-0.00307327368301,-0.498791296288,0.866708379714,0.0,0.0,0.0,0.0,0.0,0.0,0.0,0.0,0.0,-0.000446,-0.00063,-0.000898,0.0,0.0,0.0,0.0,0.0,0.0,0.0,0.0,0.0,-0.092,0.053,-9.598,0.0,0.0,0.0,0.0,0.0,0.0,0.0,0.0,0.0
1581113316357487383,415,1581113316357372999,,0.864435831876,-0.00306888774668,-0.498798886526,0.866703993778,0.0,0.0,0.0,0.0,0.0,0.0,0.0,0.0,0.0,-0.000583,0.000269,-0.000222,0.0,0.0,0.0,0.0,0.0,0.0,0.0,0.0,0.0,-0.07,0.024,-9.629,0.0,0.0,0.0,0.0,0.0,0.0,0.0,0.0,0.0
1581113316383137621,416,1581113316383028984,,0.864440219078,-0.0030689209077,-0.498791323088,0.866708346586,0.0,0.0,0.0,0.0,0.0,0.0,0.0,0.0,0.0,-0.000225,-0.000402,0.001031,0.0,0.0,0.0,0.0,0.0,0.0,0.0,0.0,0.0,-0.094,0.029,-9.568,0.0,0.0,0.0,0.0,0.0,0.0,0.0,0.0,0.0
1581113316407983780,417,1581113316407856941,,0.864431444608,-0.00307645123563,-0.498798880011,0.866703951618,0.0,0.0,0.0,0.0,0.0,0.0,0.0,0.0,0.0,5e-06,-0.000738,-0.001094,0.0,0.0,0.0,0.0,0.0,0.0,0.0,0.0,0.0,-0.079,0.036,-9.583,0.0,0.0,0.0,0.0,0.0,0.0,0.0,0.0,0.0
1581113316433058981,418,1581113316432950973,,0.864418269079,-0.0030719985977,-0.498821596924,0.866690859564,0.0,0.0,0.0,0.0,0.0,0.0,0.0,0.0,0.0,-0.00047,0.000633,0.001628,0.0,0.0,0.0,0.0,0.0,0.0,0.0,0.0,0.0,-0.083,0.053,-9.583,0.0,0.0,0.0,0.0,0.0,0.0,0.0,0.0,0.0
1581113316457813828,419,1581113316457653045,,0.864405079431,-0.00307078902081,-0.49883677064,0.866682044348,0.0,0.0,0.0,0.0,0.0,0.0,0.0,0.0,0.0,-0.001308,-0.001053,-0.000658,0.0,0.0,0.0,0.0,0.0,0.0,0.0,0.0,0.0,-0.085,0.036,-9.576,0.0,0.0,0.0,0.0,0.0,0.0,0.0,0.0,0.0
1581113316483564941,420,1581113316483441114,,0.864400691703,-0.00305556234068,-0.498859472829,0.866669069148,0.0,0.0,0.0,0.0,0.0,0.0,0.0,0.0,0.0,-0.000918,0.001234,0.001523,0.0,0.0,0.0,0.0,0.0,0.0,0.0,0.0,0.0,-0.085,0.053,-9.591,0.0,0.0,0.0,0.0,0.0,0.0,0.0,0.0,0.0
1581113316507672269,421,1581113316507565975,,0.864409480555,-0.00305998230027,-0.49884431984,0.866677809084,0.0,0.0,0.0,0.0,0.0,0.0,0.0,0.0,0.0,0.000216,-0.000284,-0.000635,0.0,0.0,0.0,0.0,0.0,0.0,0.0,0.0,0.0,-0.092,0.027,-9.594,0.0,0.0,0.0,0.0,0.0,0.0,0.0,0.0,0.0
1581113316534429063,422,1581113316534157991,,0.86439631737,-0.00305988241559,-0.498867009241,0.866664749073,0.0,0.0,0.0,0.0,0.0,0.0,0.0,0.0,0.0,0.000444,-1.5e-05,-4.6e-05,0.0,0.0,0.0,0.0,0.0,0.0,0.0,0.0,0.0,-0.078,0.023,-9.594,0.0,0.0,0.0,0.0,0.0,0.0,0.0,0.0,0.0
1581113316558004495,423,1581113316557895898,,0.864405092893,-0.00305235252531,-0.498859452493,0.866669144646,0.0,0.0,0.0,0.0,0.0,0.0,0.0,0.0,0.0,0.000437,0.000379,0.001013,0.0,0.0,0.0,0.0,0.0,0.0,0.0,0.0,0.0,-0.089,0.036,-9.596,0.0,0.0,0.0,0.0,0.0,0.0,0.0,0.0,0.0
1581113316582821177,424,1581113316582676887,,0.86439192951,-0.00305984912023,-0.498874572299,0.866660395604,0.0,0.0,0.0,0.0,0.0,0.0,0.0,0.0,0.0,-0.000313,-0.000125,-0.000927,0.0,0.0,0.0,0.0,0.0,0.0,0.0,0.0,0.0,-0.092,0.057,-9.605,0.0,0.0,0.0,0.0,0.0,0.0,0.0,0.0,0.0
1581113316607676673,425,1581113316607511997,,0.864387528123,-0.0030554622566,-0.498882162001,0.866656008741,0.0,0.0,0.0,0.0,0.0,0.0,0.0,0.0,0.0,-2.7e-05,-0.000626,0.001222,0.0,0.0,0.0,0.0,0.0,0.0,0.0,0.0,0.0,-0.073,0.038,-9.624,0.0,0.0,0.0,0.0,0.0,0.0,0.0,0.0,0.0
1581113316632599980,426,1581113316632493019,,0.864387541584,-0.00307500870972,-0.498866996431,0.866664664536,0.0,0.0,0.0,0.0,0.0,0.0,0.0,0.0,0.0,0.000341,-0.000973,0.001418,0.0,0.0,0.0,0.0,0.0,0.0,0.0,0.0,0.0,-0.072,0.04,-9.587,0.0,0.0,0.0,0.0,0.0,0.0,0.0,0.0,0.0
1581113316657735091,427,1581113316657633066,,0.864387528123,-0.00307825189566,-0.498859453756,0.866668942129,0.0,0.0,0.0,0.0,0.0,0.0,0.0,0.0,0.0,-0.000201,-0.000405,0.000502,0.0,0.0,0.0,0.0,0.0,0.0,0.0,0.0,0.0,-0.1,0.027,-9.61,0.0,0.0,0.0,0.0,0.0,0.0,0.0,0.0,0.0
1581113316683550622,428,1581113316683420896,,0.864369989222,-0.00308247162775,-0.498889679025,0.866651561564,0.0,0.0,0.0,0.0,0.0,0.0,0.0,0.0,0.0,-0.000422,0.000399,0.000681,0.0,0.0,0.0,0.0,0.0,0.0,0.0,0.0,0.0,-0.081,0.033,-9.599,0.0,0.0,0.0,0.0,0.0,0.0,0.0,0.0,0.0
1581113316707976779,429,1581113316707848072,,0.864365600967,-0.00308243821771,-0.498897241968,0.866647207898,0.0,0.0,0.0,0.0,0.0,0.0,0.0,0.0,0.0,0.000495,0.000955,0.001657,0.0,0.0,0.0,0.0,0.0,0.0,0.0,0.0,0.0,-0.085,0.029,-9.59,0.0,0.0,0.0,0.0,0.0,0.0,0.0,0.0,0.0
1581113316733665303,430,1581113316733501911,,0.864365587506,-0.00307808451784,-0.498897268848,0.866647174454,0.0,0.0,0.0,0.0,0.0,0.0,0.0,0.0,0.0,-5.9e-05,-0.000861,0.000253,0.0,0.0,0.0,0.0,0.0,0.0,0.0,0.0,0.0,-0.08,0.04,-9.592,0.0,0.0,0.0,0.0,0.0,0.0,0.0,0.0,0.0
1581113316757494477,431,1581113316757388114,,0.864383153593,-0.00306737889584,-0.498882128932,0.866655999834,0.0,0.0,0.0,0.0,0.0,0.0,0.0,0.0,0.0,-0.000122,-0.000841,0.000912,0.0,0.0,0.0,0.0,0.0,0.0,0.0,0.0,0.0,-0.093,0.03,-9.568,0.0,0.0,0.0,0.0,0.0,0.0,0.0,0.0,0.0
1581113316784383156,432,1581113316784250020,,0.864378778931,-0.0030792955345,-0.498882095654,0.866655990871,0.0,0.0,0.0,0.0,0.0,0.0,0.0,0.0,0.0,0.001223,-0.000963,0.001369,0.0,0.0,0.0,0.0,0.0,0.0,0.0,0.0,0.0,-0.098,0.032,-9.616,0.0,0.0,0.0,0.0,0.0,0.0,0.0,0.0,0.0
1581113316808743693,433,1581113316808644056,,0.864378778931,-0.00308689194874,-0.498874526107,0.866660302076,0.0,0.0,0.0,0.0,0.0,0.0,0.0,0.0,0.0,5.6e-05,0.001264,-0.000123,0.0,0.0,0.0,0.0,0.0,0.0,0.0,0.0,0.0,-0.098,0.035,-9.605,0.0,0.0,0.0,0.0,0.0,0.0,0.0,0.0,0.0
1581113316834141276,434,1581113316834033966,,0.864374390807,-0.00309445505718,-0.49887451954,0.866660259681,0.0,0.0,0.0,0.0,0.0,0.0,0.0,0.0,0.0,-0.000909,-0.000311,-0.001625,0.0,0.0,0.0,0.0,0.0,0.0,0.0,0.0,0.0,-0.069,0.029,-9.621,0.0,0.0,0.0,0.0,0.0,0.0,0.0,0.0,0.0
1581113316857592648,435,1581113316857486963,,0.864370015948,-0.00309877524296,-0.498882055536,0.866655939495,0.0,0.0,0.0,0.0,0.0,0.0,0.0,0.0,0.0,-0.000276,3.1e-05,-0.000515,0.0,0.0,0.0,0.0,0.0,0.0,0.0,0.0,0.0,-0.077,0.038,-9.603,0.0,0.0,0.0,0.0,0.0,0.0,0.0,0.0,0.0
1581113316883514242,436,1581113316883402109,,0.864374390807,-0.00309445505718,-0.49887451954,0.866660259681,0.0,0.0,0.0,0.0,0.0,0.0,0.0,0.0,0.0,4.2e-05,-8.5e-05,-0.000421,0.0,0.0,0.0,0.0,0.0,0.0,0.0,0.0,0.0,-0.093,0.021,-9.588,0.0,0.0,0.0,0.0,0.0,0.0,0.0,0.0,0.0
1581113316907649014,437,1581113316907542943,,0.864383180318,-0.00309887518892,-0.498859366366,0.8666689999,0.0,0.0,0.0,0.0,0.0,0.0,0.0,0.0,0.0,0.000151,-0.000167,0.00076,0.0,0.0,0.0,0.0,0.0,0.0,0.0,0.0,0.0,-0.065,0.041,-9.584,0.0,0.0,0.0,0.0,0.0,0.0,0.0,0.0,0.0
1581113316934054062,438,1581113316933944940,,0.86438756831,-0.00309890850377,-0.498851803233,0.866673353236,0.0,0.0,0.0,0.0,0.0,0.0,0.0,0.0,0.0,-0.000168,0.000662,0.001018,0.0,0.0,0.0,0.0,0.0,0.0,0.0,0.0,0.0,-0.089,0.014,-9.583,0.0,0.0,0.0,0.0,0.0,0.0,0.0,0.0,0.0
1581113316959091274,439,1581113316958971023,,0.86437004241,-0.0031226750356,-0.498866861657,0.866664628234,0.0,0.0,0.0,0.0,0.0,0.0,0.0,0.0,0.0,-0.000279,-0.001119,0.00087,0.0,0.0,0.0,0.0,0.0,0.0,0.0,0.0,0.0,-0.082,0.021,-9.621,0.0,0.0,0.0,0.0,0.0,0.0,0.0,0.0,0.0
1581113316983677646,440,1581113316983567953,,0.864370029212,-0.00311072516771,-0.49887445872,0.866660283926,0.0,0.0,0.0,0.0,0.0,0.0,0.0,0.0,0.0,-0.000801,0.000172,0.000963,0.0,0.0,0.0,0.0,0.0,0.0,0.0,0.0,0.0,-0.089,0.025,-9.58,0.0,0.0,0.0,0.0,0.0,0.0,0.0,0.0,0.0
1581113317008600304,441,1581113317008466958,,0.864356890578,-0.0031269288895,-0.498889523445,0.86665160086,0.0,0.0,0.0,0.0,0.0,0.0,0.0,0.0,0.0,0.001636,-0.000973,0.000449,0.0,0.0,0.0,0.0,0.0,0.0,0.0,0.0,0.0,-0.091,0.044,-9.604,0.0,0.0,0.0,0.0,0.0,0.0,0.0,0.0,0.0
1581113317033431855,442,1581113317033327102,,0.864361265833,-0.00313020488385,-0.498874417836,0.866660232287,0.0,0.0,0.0,0.0,0.0,0.0,0.0,0.0,0.0,-0.000233,0.001269,0.000608,0.0,0.0,0.0,0.0,0.0,0.0,0.0,0.0,0.0,-0.096,0.025,-9.57,0.0,0.0,0.0,0.0,0.0,0.0,0.0,0.0,0.0
1581113317058805091,443,1581113317058669090,,0.864343725022,-0.00313442545676,-0.498904642347,0.866642851022,0.0,0.0,0.0,0.0,0.0,0.0,0.0,0.0,0.0,-0.000735,-0.000683,-0.000227,0.0,0.0,0.0,0.0,0.0,0.0,0.0,0.0,0.0,-0.072,0.037,-9.599,0.0,0.0,0.0,0.0,0.0,0.0,0.0,0.0,0.0
1581113317083893895,444,1581113317083719968,,0.864352502125,-0.00313449192101,-0.4988895165,0.866651558419,0.0,0.0,0.0,0.0,0.0,0.0,0.0,0.0,0.0,0.000569,-0.00192,-0.000129,0.0,0.0,0.0,0.0,0.0,0.0,0.0,0.0,0.0,-0.079,0.03,-9.594,0.0,0.0,0.0,0.0,0.0,0.0,0.0,0.0,0.0
1581113317108987598,445,1581113317108870029,,0.864326183092,-0.0031386465536,-0.498934866215,0.866625468637,0.0,0.0,0.0,0.0,0.0,0.0,0.0,0.0,0.0,-0.000267,0.000237,-0.000895,0.0,0.0,0.0,0.0,0.0,0.0,0.0,0.0,0.0,-0.094,0.049,-9.58,0.0,0.0,0.0,0.0,0.0,0.0,0.0,0.0,0.0
1581113317133575042,446,1581113317133466005,,0.864330558874,-0.00313432575859,-0.498927330833,0.866629789432,0.0,0.0,0.0,0.0,0.0,0.0,0.0,0.0,0.0,-0.000861,0.000558,-0.000603,0.0,0.0,0.0,0.0,0.0,0.0,0.0,0.0,0.0,-0.094,0.03,-9.567,0.0,0.0,0.0,0.0,0.0,0.0,0.0,0.0,0.0
1581113317158502647,447,1581113317158396005,,0.864334947656,-0.00314195514156,-0.498912198229,0.866638454718,0.0,0.0,0.0,0.0,0.0,0.0,0.0,0.0,0.0,0.000404,6.3e-05,-0.000265,0.0,0.0,0.0,0.0,0.0,0.0,0.0,0.0,0.0,-0.067,0.035,-9.613,0.0,0.0,0.0,0.0,0.0,0.0,0.0,0.0,0.0
1581113317184169397,448,1581113317184058904,,0.864334934524,-0.00314519760275,-0.498904655807,0.8666427326,0.0,0.0,0.0,0.0,0.0,0.0,0.0,0.0,0.0,-0.000791,-0.001264,-0.001218,0.0,0.0,0.0,0.0,0.0,0.0,0.0,0.0,0.0,-0.097,0.019,-9.575,0.0,0.0,0.0,0.0,0.0,0.0,0.0,0.0,0.0
1581113317209059519,449,1581113317208947896,,0.864330532545,-0.00314081039772,-0.498912246101,0.866638345395,0.0,0.0,0.0,0.0,0.0,0.0,0.0,0.0,0.0,-0.000965,-0.000297,0.000129,0.0,0.0,0.0,0.0,0.0,0.0,0.0,0.0,0.0,-0.09,0.008,-9.583,0.0,0.0,0.0,0.0,0.0,0.0,0.0,0.0,0.0
1581113317234097894,450,1581113317233982086,,0.864339336372,-0.00314198841204,-0.498904635363,0.866642808515,0.0,0.0,0.0,0.0,0.0,0.0,0.0,0.0,0.0,-0.000173,0.000294,-3.3e-05,0.0,0.0,0.0,0.0,0.0,0.0,0.0,0.0,0.0,-0.091,0.019,-9.609,0.0,0.0,0.0,0.0,0.0,0.0,0.0,0.0,0.0
